#time,accel_x,accel_y,accel_z
3093.551547,-10362.883188,296.082377,0.000000
3093.551884,-9918.759623,-74.020594,0.000000
3093.552222,-9474.636058,-962.267725,306.438199
3093.552560,-9992.780217,-148.041188,1302.362347
3093.552897,-9918.759623,0.000000,229.828649
3093.553235,-10214.842000,296.082377,-306.438199
3093.553573,-10955.047942,222.061783,0.000000
3093.553910,-11251.130318,-370.102971,-995.924147
3093.554248,-10584.944971,-74.020594,-995.924147
3093.554586,-9622.677246,-962.267725,-995.924147
3093.554923,-9622.677246,-592.164754,-612.876398
3093.555261,-9770.718434,-1480.411884,-1532.190996
3093.555599,-10436.903782,-2146.597232,-842.705048
3093.555936,-9474.636058,-1998.556043,-612.876398
3093.556274,-10066.800811,-2146.597232,-459.657299
3093.556612,-10436.903782,-1702.473667,-995.924147
3093.556949,-10732.986159,-2590.720797,-1838.629195
3093.557287,-9696.697840,-2590.720797,-612.876398
3093.557625,-9030.512492,-2516.700203,-383.047749
3093.557962,-9770.718434,-1924.535449,-306.438199
3093.558300,-10732.986159,-1850.514855,-689.485948
3093.558638,-10510.924376,-2072.576638,-1149.143247
3093.558975,-9400.615463,-1924.535449,-306.438199
3093.559313,-9178.553681,-1554.432478,1455.581446
3093.559651,-10140.821405,-592.164754,2145.067394
3093.559988,-11547.212695,222.061783,383.047749
3093.560326,-10584.944971,-74.020594,-842.705048
3093.560664,-9770.718434,-666.185348,0.000000
3093.561001,-9696.697840,-296.082377,766.095498
3093.561339,-9770.718434,0.000000,-612.876398
3093.561677,-10732.986159,0.000000,-1838.629195
3093.562014,-9326.594869,-444.123565,-2911.162892
3093.562352,-9104.533087,-888.247130,-2221.676944
3093.562690,-9918.759623,-518.144159,-1838.629195
3093.563028,-10362.883188,-1184.329507,-3217.601092
3093.563365,-10510.924376,-1554.432478,-4903.011187
3093.563703,-9770.718434,-2886.803174,-5132.839837
3093.564041,-8216.285956,-4219.173869,-4290.134789
3093.564378,-8512.368333,-4071.132681,-1915.238745
3093.564716,-8364.327145,-4737.318029,-1915.238745
3093.565054,-9474.636058,-3034.844362,-2221.676944
3093.565391,-10732.986159,-2146.597232,-2145.067394
3093.565729,-11251.130318,-2960.823768,-2374.896044
3093.566067,-10881.027347,-2738.761985,-3294.210641
3093.566404,-10955.047942,-4293.194464,-2987.772442
3093.566742,-10436.903782,-4811.338623,-2221.676944
3093.567080,-9326.594869,-5551.544565,-2298.286494
3093.567417,-8586.388927,-4885.359217,-612.876398
3093.567755,-9326.594869,-3997.112087,-689.485948
3093.568093,-9918.759623,-2368.659014,0.000000
3093.568430,-11991.336260,-2146.597232,-1838.629195
3093.568768,-11769.274478,-666.185348,-3447.429741
3093.569106,-10955.047942,-1998.556043,-3753.867940
3093.569443,-10436.903782,-3256.906145,-3064.381992
3093.569781,-10066.800811,-3701.029710,-2068.457845
3093.570119,-10214.842000,-3701.029710,-1762.019645
3093.570456,-9326.594869,-3997.112087,-1762.019645
3093.570794,-9252.574275,-3701.029710,-2221.676944
3093.571132,-10214.842000,-4219.173869,-2145.067394
3093.571469,-9770.718434,-3775.050304,-1455.581446
3093.571807,-8956.491898,-2368.659014,0.000000
3093.572145,-10214.842000,-222.061783,1455.581446
3093.572482,-10955.047942,666.185348,0.000000
3093.572820,-12287.418637,-1110.308913,-1072.533697
3093.573158,-11029.068536,-2146.597232,-995.924147
3093.573495,-9696.697840,-2960.823768,1149.143247
3093.573833,-8364.327145,-2294.638420,1685.410096
3093.574171,-8068.244768,-2146.597232,229.828649
3093.574508,-9104.533087,-1850.514855,-612.876398
3093.574846,-9400.615463,-1702.473667,-1302.362347
3093.575184,-9400.615463,370.102971,-1225.752797
3093.575521,-9326.594869,1258.350101,-1685.410096
3093.575859,-10362.883188,740.205942,-1608.800546
3093.576197,-11843.295072,444.123565,-1991.848295
3093.576535,-11399.171507,-592.164754,-2681.334243
3093.576872,-9030.512492,-666.185348,-2757.943793
3093.577210,-8142.265362,-3108.864956,-1302.362347
3093.577548,-9844.739029,-4219.173869,-689.485948
3093.577885,-9918.759623,-2886.803174,-3600.648841
3093.578223,-8882.471304,-2960.823768,-4673.182538
3093.578561,-10066.800811,-3182.885551,-3447.429741
3093.578898,-11251.130318,-3701.029710,-4060.306139
3093.579236,-11547.212695,-2368.659014,-5056.230287
3093.579574,-10362.883188,-2886.803174,-4060.306139
3093.579911,-9178.553681,-3182.885551,-1302.362347
3093.580249,-10658.965565,-2812.782580,-919.314598
3093.580587,-11843.295072,-3108.864956,-1532.190996
3093.580924,-11029.068536,-2960.823768,-612.876398
3093.581262,-9770.718434,-2812.782580,-919.314598
3093.581600,-9474.636058,-3404.947333,-919.314598
3093.581937,-10436.903782,-1628.453072,76.609550
3093.582275,-10510.924376,-1332.370696,-919.314598
3093.582613,-10214.842000,-814.226536,-3983.696590
3093.582950,-10658.965565,-888.247130,-4519.963438
3093.583288,-9696.697840,-1554.432478,-4136.915689
3093.583626,-9104.533087,-1702.473667,-2911.162892
3093.583963,-7994.224174,-1702.473667,-2911.162892
3093.584301,-8364.327145,-2368.659014,-2604.724693
3093.584639,-10732.986159,-2442.679609,-919.314598
3093.584976,-9622.677246,-2368.659014,-1225.752797
3093.585314,-9844.739029,-1850.514855,689.485948
3093.585652,-10881.027347,-888.247130,1225.752797
3093.585989,-10881.027347,-1184.329507,-76.609550
3093.586327,-11325.150913,-740.205942,0.000000
3093.586665,-10140.821405,-1998.556043,-2681.334243
3093.587002,-9622.677246,-2886.803174,-2145.067394
3093.587340,-10140.821405,-2590.720797,-2528.115143
3093.587678,-7994.224174,-4071.132681,-2374.896044
3093.588015,-8956.491898,-3627.009116,-1072.533697
3093.588353,-8808.450710,-3256.906145,76.609550
3093.588691,-10362.883188,-1480.411884,1302.362347
3093.589029,-10658.965565,-148.041188,1302.362347
3093.589366,-11621.233289,444.123565,842.705048
3093.589704,-12509.480420,-296.082377,-995.924147
3093.590042,-11917.315666,-1924.535449,-1915.238745
3093.590379,-11177.109724,-3775.050304,-1762.019645
3093.590717,-8660.409521,-5107.421000,-4213.525239
3093.591055,-7179.997637,-5921.647536,-3830.477490
3093.591392,-7402.059420,-6735.874072,-3677.258390
3093.591730,-8216.285956,-5847.626942,-3447.429741
3093.592068,-8586.388927,-4145.153275,-3370.820191
3093.592405,-10658.965565,-3034.844362,-3524.039291
3093.592743,-11621.233289,-2516.700203,-4060.306139
3093.593081,-12805.562797,-3034.844362,-3600.648841
3093.593418,-11103.089130,-4071.132681,-3524.039291
3093.593756,-8660.409521,-4811.338623,-1991.848295
3093.594094,-9474.636058,-5403.503377,612.876398
3093.594431,-9252.574275,-5773.606348,306.438199
3093.594769,-10066.800811,-4589.276840,-689.485948
3093.595107,-9474.636058,-3108.864956,-1838.629195
3093.595444,-10214.842000,-1554.432478,-2451.505594
3093.595782,-11843.295072,-518.144159,-2528.115143
3093.596120,-11251.130318,814.226536,-2987.772442
3093.596457,-11029.068536,444.123565,-1991.848295
3093.596795,-10436.903782,370.102971,-459.657299
3093.597133,-10807.006753,222.061783,76.609550
3093.597470,-10881.027347,0.000000,-919.314598
3093.597808,-9400.615463,-740.205942,-1225.752797
3093.598146,-9178.553681,-1850.514855,-1455.581446
3093.598483,-9770.718434,-2812.782580,-2374.896044
3093.598821,-7476.080014,-2368.659014,-2911.162892
3093.599159,-8216.285956,-2072.576638,-1685.410096
3093.599496,-9326.594869,-740.205942,-2374.896044
3093.599834,-9992.780217,1036.288319,-3447.429741
3093.600172,-10807.006753,370.102971,-2374.896044
3093.600509,-10066.800811,-444.123565,-3524.039291
3093.600847,-10214.842000,-3256.906145,-2298.286494
3093.601185,-9474.636058,-4367.215058,-995.924147
3093.601522,-8142.265362,-5625.565159,842.705048
3093.601860,-7920.203579,-4441.235652,2221.676944
3093.602198,-8586.388927,-2812.782580,1149.143247
3093.602536,-10955.047942,-888.247130,229.828649
3093.602873,-12805.562797,-592.164754,-1991.848295
3093.603211,-12361.439231,-740.205942,-3447.429741
3093.603549,-12065.356855,-740.205942,-2374.896044
3093.603886,-10807.006753,-1480.411884,-2834.553343
3093.604224,-9474.636058,-2294.638420,-2911.162892
3093.604562,-8660.409521,-3256.906145,-2987.772442
3093.604899,-8586.388927,-4293.194464,-1915.238745
3093.605237,-10955.047942,-4293.194464,-995.924147
3093.605575,-11621.233289,-4515.256246,-1302.362347
3093.605912,-11695.253884,-2886.803174,-2604.724693
3093.606250,-11547.212695,-3034.844362,-3524.039291
3093.606588,-9770.718434,-2664.741391,-3983.696590
3093.606925,-8364.327145,-3701.029710,-3524.039291
3093.607263,-8882.471304,-4441.235652,-1915.238745
3093.607601,-8586.388927,-4145.153275,-1378.971896
3093.607938,-9548.656652,-3108.864956,-1762.019645
3093.608276,-10140.821405,-3701.029710,-689.485948
3093.608614,-10732.986159,-2960.823768,-842.705048
3093.608951,-10510.924376,-3182.885551,-229.828649
3093.609289,-10288.862594,-1628.453072,-766.095498
3093.609626,-8216.285956,-2294.638420,0.000000
3093.609964,-9104.533087,-1480.411884,0.000000
3093.610301,-11251.130318,0.000000,-536.266849
3093.610639,-11399.171507,-370.102971,-2374.896044
3093.610976,-11325.150913,-148.041188,-766.095498
3093.611313,-10214.842000,370.102971,-1608.800546
3093.611651,-7846.182985,518.144159,-1378.971896
3093.611988,-9326.594869,0.000000,-536.266849
3093.612326,-10881.027347,-2072.576638,-2221.676944
3093.612663,-12213.398043,-3330.926739,-3370.820191
3093.613000,-11325.150913,-2516.700203,-3294.210641
3093.613338,-7920.203579,-2738.761985,-2834.553343
3093.613675,-7994.224174,-2442.679609,-1762.019645
3093.614013,-7476.080014,-3182.885551,-4213.525239
3093.614350,-9548.656652,-4737.318029,-3064.381992
3093.614687,-10436.903782,-4145.153275,-2145.067394
3093.615025,-9696.697840,-4071.132681,-1838.629195
3093.615362,-10436.903782,-2442.679609,-1225.752797
3093.615700,-11103.089130,-2664.741391,-766.095498
3093.616037,-11473.192101,-3701.029710,-1302.362347
3093.616374,-10658.965565,-3627.009116,-2834.553343
3093.616712,-8956.491898,-3775.050304,-1838.629195
3093.617049,-9474.636058,-3997.112087,-689.485948
3093.617387,-9696.697840,-3849.070898,-2374.896044
3093.617724,-10288.862594,-3330.926739,-2221.676944
3093.618061,-11547.212695,-1924.535449,-2451.505594
3093.618399,-10066.800811,-888.247130,-2374.896044
3093.618736,-9474.636058,-740.205942,-995.924147
3093.619074,-10214.842000,-2368.659014,229.828649
3093.619411,-10584.944971,-3330.926739,919.314598
3093.619748,-11695.253884,-1110.308913,0.000000
3093.620086,-11547.212695,-1480.411884,-2374.896044
3093.620423,-9474.636058,-2442.679609,-4290.134789
3093.620761,-8586.388927,-3404.947333,-3677.258390
3093.621098,-7476.080014,-2738.761985,-1302.362347
3093.621435,-7698.141797,-1184.329507,0.000000
3093.621773,-9252.574275,148.041188,-689.485948
3093.622110,-11473.192101,-148.041188,-2221.676944
3093.622448,-13841.851115,148.041188,-2451.505594
3093.622785,-10362.883188,-888.247130,-612.876398
3093.623122,-8216.285956,-1776.494261,3294.210641
3093.623460,-7698.141797,-1036.288319,3600.648841
3093.623797,-8734.430116,-592.164754,2911.162892
3093.624135,-10732.986159,962.267725,459.657299
3093.624472,-10436.903782,-74.020594,-689.485948
3093.624809,-12361.439231,1406.391290,-1149.143247
3093.625147,-11843.295072,1702.473667,-2987.772442
3093.625484,-9992.780217,962.267725,-2374.896044
3093.625822,-7254.018232,-666.185348,-1685.410096
3093.626159,-9178.553681,-592.164754,-842.705048
3093.626496,-10362.883188,518.144159,-1532.190996
3093.626834,-9104.533087,-962.267725,-1532.190996
3093.627171,-9770.718434,-2886.803174,229.828649
3093.627509,-10288.862594,-2590.720797,536.266849
3093.627846,-10584.944971,-1628.453072,-306.438199
3093.628183,-9548.656652,-2072.576638,-689.485948
3093.628521,-9474.636058,-1850.514855,-1915.238745
3093.628858,-10362.883188,-962.267725,-1762.019645
3093.629196,-10140.821405,-1332.370696,-612.876398
3093.629533,-9918.759623,-2516.700203,919.314598
3093.629870,-10214.842000,-2590.720797,2068.457845
3093.630208,-10140.821405,-2368.659014,1991.848295
3093.630545,-9770.718434,-1776.494261,1608.800546
3093.630883,-9178.553681,-1480.411884,3140.991542
3093.631220,-10732.986159,-296.082377,3140.991542
3093.631557,-12583.501014,-666.185348,1455.581446
3093.631895,-13027.624579,444.123565,1149.143247
3093.632232,-9400.615463,962.267725,-306.438199
3093.632570,-9400.615463,74.020594,-383.047749
3093.632907,-9030.512492,-1628.453072,0.000000
3093.633244,-9178.553681,-1184.329507,2374.896044
3093.633582,-9992.780217,740.205942,2911.162892
3093.633919,-10214.842000,1036.288319,229.828649
3093.634257,-10658.965565,1036.288319,-1302.362347
3093.634594,-9918.759623,592.164754,-995.924147
3093.634931,-10066.800811,-666.185348,76.609550
3093.635269,-9474.636058,814.226536,229.828649
3093.635606,-9400.615463,962.267725,0.000000
3093.635944,-9030.512492,-740.205942,-1225.752797
3093.636281,-9770.718434,-666.185348,-1149.143247
3093.636618,-9030.512492,0.000000,-229.828649
3093.636956,-8808.450710,370.102971,766.095498
3093.637293,-10140.821405,296.082377,612.876398
3093.637631,-11399.171507,-592.164754,0.000000
3093.637968,-11547.212695,370.102971,-689.485948
3093.638305,-9770.718434,-74.020594,76.609550
3093.638643,-8882.471304,0.000000,2221.676944
3093.638980,-9474.636058,296.082377,1149.143247
3093.639318,-11621.233289,-444.123565,-306.438199
3093.639655,-11843.295072,222.061783,-1608.800546
3093.639992,-9474.636058,0.000000,-2528.115143
3093.640330,-9474.636058,-1184.329507,-1149.143247
3093.640667,-10584.944971,-2294.638420,-995.924147
3093.641005,-10584.944971,-1702.473667,-1685.410096
3093.641342,-9696.697840,-1998.556043,-1762.019645
3093.641679,-9548.656652,-3034.844362,-766.095498
3093.642017,-9548.656652,-1702.473667,153.219100
3093.642354,-10732.986159,-2516.700203,76.609550
3093.642692,-10436.903782,-2368.659014,689.485948
3093.643029,-10288.862594,-1776.494261,306.438199
3093.643366,-9548.656652,-666.185348,-229.828649
3093.643704,-8808.450710,-1554.432478,153.219100
3093.644041,-10584.944971,-1702.473667,2374.896044
3093.644379,-13027.624579,0.000000,2451.505594
3093.644716,-10362.883188,-370.102971,1532.190996
3093.645053,-9918.759623,-444.123565,3064.381992
3093.645391,-9622.677246,-370.102971,3217.601092
3093.645728,-10066.800811,-296.082377,2911.162892
3093.646066,-9104.533087,1406.391290,1225.752797
3093.646403,-8290.306550,1480.411884,1072.533697
3093.646740,-10955.047942,1702.473667,1685.410096
3093.647078,-11029.068536,2960.823768,459.657299
3093.647415,-10288.862594,3923.091493,-1072.533697
3093.647753,-10362.883188,2072.576638,-536.266849
3093.648090,-10510.924376,1110.308913,-689.485948
3093.648427,-10807.006753,-666.185348,-1302.362347
3093.648765,-7328.038826,-1480.411884,-689.485948
3093.649102,-7920.203579,-2368.659014,-153.219100
3093.649440,-7105.977043,-1332.370696,-995.924147
3093.649777,-10362.883188,-2368.659014,306.438199
3093.650114,-11473.192101,-1036.288319,-459.657299
3093.650452,-9474.636058,296.082377,-689.485948
3093.650789,-11251.130318,1480.411884,-306.438199
3093.651127,-12731.542202,-888.247130,1072.533697
3093.651464,-12065.356855,-1924.535449,229.828649
3093.651801,-7254.018232,-1480.411884,-766.095498
3093.652139,-8734.430116,-2664.741391,1455.581446
3093.652476,-10288.862594,-2220.617826,2068.457845
3093.652814,-11547.212695,-2516.700203,0.000000
3093.653151,-11103.089130,-296.082377,-689.485948
3093.653488,-10658.965565,-444.123565,-306.438199
3093.653826,-9992.780217,0.000000,459.657299
3093.654163,-11547.212695,0.000000,536.266849
3093.654501,-10436.903782,0.000000,-229.828649
3093.654838,-9992.780217,592.164754,-1455.581446
3093.655175,-10362.883188,0.000000,-612.876398
3093.655513,-10658.965565,-666.185348,-612.876398
3093.655850,-9622.677246,-1480.411884,-1225.752797
3093.656188,-8956.491898,370.102971,-153.219100
3093.656525,-10436.903782,518.144159,919.314598
3093.656862,-11769.274478,740.205942,306.438199
3093.657200,-10881.027347,444.123565,-1072.533697
3093.657537,-9252.574275,740.205942,229.828649
3093.657875,-8438.347739,-296.082377,612.876398
3093.658212,-8438.347739,0.000000,2374.896044
3093.658549,-9844.739029,2146.597232,3447.429741
3093.658887,-9252.574275,1850.514855,1455.581446
3093.659224,-10658.965565,2368.659014,689.485948
3093.659562,-11325.150913,1554.432478,-229.828649
3093.659899,-10732.986159,444.123565,1378.971896
3093.660236,-9326.594869,0.000000,2528.115143
3093.660574,-7994.224174,814.226536,1991.848295
3093.660911,-8956.491898,1110.308913,1072.533697
3093.661249,-10807.006753,-444.123565,459.657299
3093.661586,-9548.656652,-592.164754,-383.047749
3093.661923,-8956.491898,148.041188,-306.438199
3093.662261,-10362.883188,-370.102971,919.314598
3093.662598,-12361.439231,0.000000,76.609550
3093.662936,-11473.192101,-888.247130,-2145.067394
3093.663273,-9178.553681,-2368.659014,-3064.381992
3093.663610,-9474.636058,-3034.844362,0.000000
3093.663948,-9400.615463,-3182.885551,1991.848295
3093.664285,-9844.739029,-3330.926739,1072.533697
3093.664623,-10955.047942,-2442.679609,-459.657299
3093.664960,-10362.883188,-1702.473667,-1685.410096
3093.665297,-9474.636058,-1850.514855,229.828649
3093.665635,-10510.924376,-1332.370696,1991.848295
3093.665972,-9844.739029,296.082377,1838.629195
3093.666310,-9918.759623,1036.288319,689.485948
3093.666647,-11251.130318,-444.123565,536.266849
3093.666984,-11621.233289,-2368.659014,1149.143247
3093.667322,-11103.089130,-1258.350101,1072.533697
3093.667659,-7994.224174,1110.308913,766.095498
3093.667997,-7031.956449,1332.370696,-229.828649
3093.668334,-10066.800811,592.164754,-153.219100
3093.668671,-10807.006753,740.205942,-2068.457845
3093.669009,-9844.739029,740.205942,-1225.752797
3093.669346,-10362.883188,1332.370696,536.266849
3093.669684,-10732.986159,962.267725,0.000000
3093.670021,-10288.862594,592.164754,-1302.362347
3093.670358,-8364.327145,222.061783,-1072.533697
3093.670696,-7254.018232,-814.226536,459.657299
3093.671033,-9400.615463,-1998.556043,995.924147
3093.671371,-11843.295072,-1628.453072,-459.657299
3093.671708,-10881.027347,0.000000,-612.876398
3093.672045,-9474.636058,740.205942,-459.657299
3093.672383,-8586.388927,0.000000,689.485948
3093.672720,-10955.047942,-444.123565,2451.505594
3093.673058,-10288.862594,0.000000,2451.505594
3093.673395,-10955.047942,148.041188,1762.019645
3093.673732,-10436.903782,1332.370696,306.438199
3093.674070,-10214.842000,0.000000,1225.752797
3093.674407,-10288.862594,-2072.576638,1838.629195
3093.674745,-10140.821405,-1036.288319,1838.629195
3093.675082,-9030.512492,-370.102971,383.047749
3093.675419,-9844.739029,518.144159,153.219100
3093.675757,-11473.192101,-444.123565,76.609550
3093.676094,-10732.986159,-444.123565,-2298.286494
3093.676432,-9844.739029,-1332.370696,-2374.896044
3093.676769,-7846.182985,-2664.741391,-383.047749
3093.677106,-7994.224174,-2146.597232,1608.800546
3093.677444,-9252.574275,-1184.329507,995.924147
3093.677781,-9622.677246,1036.288319,-995.924147
3093.678119,-10955.047942,-444.123565,-995.924147
3093.678456,-13397.727550,-1924.535449,459.657299
3093.678793,-10732.986159,-1406.391290,766.095498
3093.679131,-9252.574275,-592.164754,459.657299
3093.679468,-7698.141797,-148.041188,1455.581446
3093.679806,-9104.533087,-518.144159,1225.752797
3093.680143,-12361.439231,-296.082377,1149.143247
3093.680480,-10955.047942,2220.617826,-1072.533697
3093.680818,-8882.471304,2368.659014,536.266849
3093.681155,-11251.130318,1998.556043,2681.334243
3093.681493,-11325.150913,1332.370696,1072.533697
3093.681830,-12361.439231,1998.556043,1225.752797
3093.682167,-9474.636058,3182.885551,383.047749
3093.682505,-6661.853478,1184.329507,76.609550
3093.682842,-9474.636058,0.000000,612.876398
3093.683180,-10436.903782,-592.164754,-536.266849
3093.683517,-9770.718434,0.000000,-1608.800546
3093.683854,-8734.430116,-1110.308913,-1072.533697
3093.684192,-9548.656652,-1110.308913,306.438199
3093.684529,-9992.780217,-1110.308913,-153.219100
3093.684867,-8882.471304,0.000000,229.828649
3093.685204,-7105.977043,296.082377,536.266849
3093.685541,-11177.109724,-1850.514855,919.314598
3093.685879,-12657.521608,-2146.597232,-995.924147
3093.686216,-10658.965565,-2442.679609,-1915.238745
3093.686554,-7031.956449,-1184.329507,153.219100
3093.686891,-6809.894666,-370.102971,3294.210641
3093.687228,-11547.212695,296.082377,3600.648841
3093.687566,-13915.871710,2590.720797,612.876398
3093.687903,-13101.645173,1998.556043,-2451.505594
3093.688241,-11843.295072,0.000000,-689.485948
3093.688578,-11769.274478,-1258.350101,1608.800546
3093.688915,-8586.388927,-1184.329507,3140.991542
3093.689253,-7402.059420,888.247130,2145.067394
3093.689590,-8586.388927,222.061783,0.000000
3093.689928,-11473.192101,74.020594,153.219100
3093.690265,-12213.398043,444.123565,-1608.800546
3093.690602,-11325.150913,1036.288319,-1915.238745
3093.690940,-9252.574275,592.164754,-229.828649
3093.691277,-9178.553681,-740.205942,0.000000
3093.691615,-7994.224174,-2146.597232,-459.657299
3093.691952,-7846.182985,-1036.288319,0.000000
3093.692289,-7031.956449,-444.123565,459.657299
3093.692627,-10807.006753,-1554.432478,919.314598
3093.692964,-11843.295072,-1332.370696,0.000000
3093.693302,-10436.903782,-1110.308913,-919.314598
3093.693639,-9104.533087,0.000000,1149.143247
3093.693976,-7846.182985,0.000000,1072.533697
3093.694314,-8438.347739,666.185348,1532.190996
3093.694651,-10362.883188,2072.576638,1991.848295
3093.694989,-12065.356855,592.164754,0.000000
3093.695326,-10584.944971,1406.391290,-383.047749
3093.695663,-11917.315666,370.102971,1455.581446
3093.696001,-11103.089130,-296.082377,536.266849
3093.696338,-8068.244768,0.000000,-383.047749
3093.696676,-6217.729913,740.205942,229.828649
3093.697013,-9474.636058,296.082377,1149.143247
3093.697350,-11991.336260,296.082377,-1149.143247
3093.697688,-12139.377449,1184.329507,-3140.991542
3093.698025,-11473.192101,-222.061783,-2528.115143
3093.698363,-10732.986159,-1480.411884,-689.485948
3093.698700,-9104.533087,-962.267725,612.876398
3093.699037,-8808.450710,0.000000,1455.581446
3093.699375,-9030.512492,-1998.556043,-689.485948
3093.699712,-9992.780217,-2664.741391,-842.705048
3093.700050,-10510.924376,-1628.453072,76.609550
3093.700387,-10066.800811,-1258.350101,-383.047749
3093.700724,-10658.965565,-1776.494261,612.876398
3093.701062,-9918.759623,-1406.391290,1532.190996
3093.701399,-9030.512492,0.000000,1838.629195
3093.701737,-10732.986159,-222.061783,2911.162892
3093.702074,-11843.295072,222.061783,2221.676944
3093.702411,-10658.965565,518.144159,1149.143247
3093.702749,-10807.006753,-296.082377,2068.457845
3093.703086,-10955.047942,-888.247130,2451.505594
3093.703424,-10214.842000,148.041188,1762.019645
3093.703761,-9178.553681,1998.556043,76.609550
3093.704098,-8512.368333,2220.617826,-536.266849
3093.704436,-10436.903782,1924.535449,459.657299
3093.704773,-10584.944971,1628.453072,0.000000
3093.705111,-11029.068536,1184.329507,-459.657299
3093.705448,-12287.418637,1702.473667,-766.095498
3093.705785,-7328.038826,-296.082377,-842.705048
3093.706123,-9252.574275,-518.144159,-1072.533697
3093.706460,-8882.471304,-370.102971,1149.143247
3093.706798,-8956.491898,-370.102971,919.314598
3093.707135,-8956.491898,0.000000,842.705048
3093.707472,-9696.697840,-370.102971,306.438199
3093.707810,-11621.233289,0.000000,153.219100
3093.708147,-10658.965565,518.144159,-229.828649
3093.708485,-8290.306550,0.000000,0.000000
3093.708822,-8068.244768,1406.391290,-1149.143247
3093.709159,-8808.450710,-518.144159,1302.362347
3093.709497,-11991.336260,740.205942,-1225.752797
3093.709834,-10955.047942,666.185348,-536.266849
3093.710172,-9400.615463,0.000000,-689.485948
3093.710509,-11029.068536,-592.164754,536.266849
3093.710846,-11473.192101,-1406.391290,-689.485948
3093.711184,-8290.306550,-1554.432478,-1532.190996
3093.711521,-9104.533087,-2146.597232,1149.143247
3093.711858,-11103.089130,-592.164754,1072.533697
3093.712196,-12139.377449,-1406.391290,-2374.896044
3093.712533,-11103.089130,-666.185348,-3140.991542
3093.712871,-12583.501014,-1628.453072,-919.314598
3093.713208,-9030.512492,-1332.370696,-1455.581446
3093.713545,-7179.997637,-3034.844362,459.657299
3093.713883,-9030.512492,-3701.029710,2987.772442
3093.714220,-10214.842000,-1776.494261,2681.334243
3093.714557,-11695.253884,-592.164754,1072.533697
3093.714895,-11547.212695,0.000000,995.924147
3093.715232,-9844.739029,-1776.494261,1685.410096
3093.715570,-10140.821405,-666.185348,3294.210641
3093.715907,-8660.409521,888.247130,1455.581446
3093.716244,-7328.038826,1702.473667,1532.190996
3093.716582,-9548.656652,962.267725,1378.971896
3093.716919,-11029.068536,0.000000,689.485948
3093.717256,-12361.439231,592.164754,1532.190996
3093.717594,-8142.265362,2220.617826,1762.019645
3093.717931,-7994.224174,1332.370696,3677.258390
3093.718269,-12065.356855,1258.350101,3600.648841
3093.718606,-11769.274478,1110.308913,306.438199
3093.718943,-9696.697840,1406.391290,-1072.533697
3093.719281,-9474.636058,888.247130,-1225.752797
3093.719618,-9326.594869,0.000000,-1225.752797
3093.719955,-9178.553681,0.000000,-1685.410096
3093.720293,-9252.574275,1110.308913,-1608.800546
3093.720630,-9696.697840,1110.308913,-1302.362347
3093.720968,-11177.109724,-1110.308913,-1762.019645
3093.721305,-11621.233289,-1480.411884,-306.438199
3093.721642,-10140.821405,-2590.720797,-153.219100
3093.721980,-8290.306550,-1702.473667,1532.190996
3093.722317,-8438.347739,-2368.659014,3447.429741
3093.722655,-12065.356855,-2072.576638,2911.162892
3093.722992,-11325.150913,-592.164754,-1072.533697
3093.723329,-10214.842000,-444.123565,-2221.676944
3093.723667,-9770.718434,-592.164754,76.609550
3093.724004,-9104.533087,-666.185348,766.095498
3093.724341,-10584.944971,0.000000,229.828649
3093.724679,-10214.842000,-296.082377,-2834.553343
3093.725016,-9400.615463,-1110.308913,-2757.943793
3093.725354,-9474.636058,-1480.411884,-689.485948
3093.725691,-10362.883188,-1850.514855,766.095498
3093.726028,-8808.450710,0.000000,0.000000
3093.726366,-9104.533087,592.164754,-1149.143247
3093.726703,-12065.356855,-518.144159,-919.314598
3093.727040,-11843.295072,-888.247130,-1838.629195
3093.727378,-9400.615463,-370.102971,-1378.971896
3093.727715,-8438.347739,0.000000,1762.019645
3093.728053,-9548.656652,1258.350101,2681.334243
3093.728390,-11843.295072,592.164754,842.705048
3093.728727,-11251.130318,0.000000,-229.828649
3093.729065,-10066.800811,-666.185348,842.705048
3093.729402,-9844.739029,1332.370696,3677.258390
3093.729739,-9474.636058,222.061783,4060.306139
3093.730077,-9622.677246,370.102971,2987.772442
3093.730414,-9326.594869,1110.308913,536.266849
3093.730752,-7328.038826,2220.617826,-153.219100
3093.731089,-9622.677246,148.041188,1838.629195
3093.731426,-11843.295072,1480.411884,2374.896044
3093.731764,-11029.068536,1998.556043,-306.438199
3093.732101,-11103.089130,666.185348,-766.095498
3093.732438,-9844.739029,-1332.370696,1455.581446
3093.732776,-9474.636058,-2812.782580,2604.724693
3093.733113,-9178.553681,0.000000,1149.143247
3093.733451,-9252.574275,-888.247130,-383.047749
3093.733788,-10436.903782,-1184.329507,-383.047749
3093.734125,-12139.377449,-2294.638420,0.000000
3093.734463,-12879.583391,-888.247130,-1378.971896
3093.734800,-9474.636058,518.144159,-2221.676944
3093.735137,-8512.368333,-962.267725,0.000000
3093.735475,-10362.883188,-2220.617826,1608.800546
3093.735812,-11399.171507,-3108.864956,153.219100
3093.736150,-9844.739029,-740.205942,383.047749
3093.736487,-9992.780217,-2516.700203,995.924147
3093.736824,-10732.986159,-2442.679609,536.266849
3093.737162,-10362.883188,-1628.453072,536.266849
3093.737499,-8956.491898,370.102971,919.314598
3093.737836,-7476.080014,1184.329507,-459.657299
3093.738174,-9178.553681,1184.329507,-1149.143247
3093.738511,-11547.212695,1332.370696,76.609550
3093.738849,-11325.150913,1332.370696,-1225.752797
3093.739186,-10955.047942,518.144159,-1838.629195
3093.739523,-10288.862594,-814.226536,-919.314598
3093.739861,-7994.224174,-592.164754,842.705048
3093.740198,-8660.409521,296.082377,1072.533697
3093.740535,-9548.656652,740.205942,-2068.457845
3093.740873,-9622.677246,74.020594,-2911.162892
3093.741210,-12065.356855,-444.123565,-1915.238745
3093.741548,-11769.274478,-370.102971,-842.705048
3093.741885,-9696.697840,814.226536,-459.657299
3093.742222,-9104.533087,444.123565,842.705048
3093.742560,-7994.224174,-74.020594,1072.533697
3093.742897,-12213.398043,-1110.308913,3217.601092
3093.743234,-12361.439231,-74.020594,995.924147
3093.743572,-10584.944971,-1258.350101,229.828649
3093.743909,-11029.068536,-1480.411884,2145.067394
3093.744247,-9104.533087,-1924.535449,2221.676944
3093.744584,-9992.780217,-1110.308913,2911.162892
3093.744921,-8364.327145,222.061783,1455.581446
3093.745259,-7846.182985,-962.267725,1302.362347
3093.745596,-11547.212695,666.185348,2145.067394
3093.745933,-12509.480420,296.082377,766.095498
3093.746271,-10807.006753,518.144159,-842.705048
3093.746608,-7994.224174,-666.185348,-1302.362347
3093.746946,-8364.327145,-2368.659014,1532.190996
3093.747283,-10436.903782,-1998.556043,1532.190996
3093.747620,-8956.491898,-1702.473667,-1915.238745
3093.747958,-8882.471304,-1850.514855,-842.705048
3093.748295,-10214.842000,-2146.597232,1072.533697
3093.748632,-11621.233289,-962.267725,689.485948
3093.748970,-11843.295072,1702.473667,766.095498
3093.749307,-10140.821405,1924.535449,-1915.238745
3093.749645,-10436.903782,-1332.370696,-1838.629195
3093.749982,-11695.253884,-2590.720797,76.609550
3093.750319,-8956.491898,-2072.576638,1455.581446
3093.750657,-7105.977043,-1184.329507,1532.190996
3093.750994,-8882.471304,0.000000,3907.087040
3093.751331,-13101.645173,222.061783,3370.820191
3093.751669,-13915.871710,740.205942,919.314598
3093.752006,-10732.986159,1998.556043,-1225.752797
3093.752344,-7179.997637,1998.556043,229.828649
3093.752681,-10066.800811,1184.329507,1838.629195
3093.753018,-10807.006753,592.164754,-459.657299
3093.753356,-9548.656652,222.061783,-2451.505594
3093.753693,-9104.533087,444.123565,-1685.410096
3093.754030,-8364.327145,-444.123565,-1072.533697
3093.754368,-9696.697840,-1036.288319,-1225.752797
3093.754705,-10140.821405,-740.205942,-1838.629195
3093.755043,-9178.553681,-444.123565,-2528.115143
3093.755380,-8512.368333,-666.185348,-2221.676944
3093.755717,-9844.739029,-1628.453072,76.609550
3093.756055,-9770.718434,-666.185348,-1072.533697
3093.756392,-9474.636058,-592.164754,-1149.143247
3093.756729,-9474.636058,0.000000,306.438199
3093.757067,-10510.924376,-1258.350101,766.095498
3093.757404,-11621.233289,-1850.514855,459.657299
3093.757742,-10214.842000,-1184.329507,459.657299
3093.758079,-10584.944971,-1184.329507,1532.190996
3093.758416,-10140.821405,-962.267725,1762.019645
3093.758754,-9030.512492,814.226536,689.485948
3093.759091,-11177.109724,444.123565,689.485948
3093.759428,-10732.986159,0.000000,-689.485948
3093.759766,-10214.842000,222.061783,-153.219100
3093.760103,-11473.192101,592.164754,2604.724693
3093.760441,-10732.986159,-592.164754,1455.581446
3093.760778,-10288.862594,-1036.288319,76.609550
3093.761115,-10288.862594,-1110.308913,0.000000
3093.761453,-9474.636058,-1702.473667,766.095498
3093.761790,-11177.109724,-2146.597232,1225.752797
3093.762128,-10658.965565,-2072.576638,0.000000
3093.762465,-8216.285956,-2146.597232,-842.705048
3093.762802,-7624.121203,-2220.617826,306.438199
3093.763140,-8660.409521,-1924.535449,1378.971896
3093.763477,-10140.821405,-1406.391290,459.657299
3093.763814,-9770.718434,-2072.576638,306.438199
3093.764152,-11029.068536,-1110.308913,2298.286494
3093.764489,-9844.739029,-814.226536,2987.772442
3093.764827,-10584.944971,592.164754,4213.525239
3093.765164,-10510.924376,296.082377,2834.553343
3093.765501,-10362.883188,370.102971,1608.800546
3093.765839,-10214.842000,1332.370696,153.219100
3093.766176,-10732.986159,1628.453072,-306.438199
3093.766513,-10362.883188,1850.514855,-766.095498
3093.766851,-9104.533087,2442.679609,-1608.800546
3093.767188,-9030.512492,3108.864956,-842.705048
3093.767526,-10362.883188,2220.617826,-689.485948
3093.767863,-11177.109724,1184.329507,-842.705048
3093.768200,-10732.986159,148.041188,-919.314598
3093.768538,-11843.295072,222.061783,-766.095498
3093.768875,-8438.347739,-888.247130,-1762.019645
3093.769212,-8364.327145,-1184.329507,-1762.019645
3093.769550,-7179.997637,-1776.494261,-1225.752797
3093.769887,-9918.759623,-1480.411884,-766.095498
3093.770225,-11547.212695,-1332.370696,-2451.505594
3093.770562,-10288.862594,-1332.370696,-3600.648841
3093.770899,-8956.491898,-1480.411884,-2068.457845
3093.771237,-9844.739029,-1184.329507,-1072.533697
3093.771574,-8808.450710,-1554.432478,459.657299
3093.771911,-11103.089130,-1480.411884,1455.581446
3093.772249,-11695.253884,-2220.617826,1072.533697
3093.772586,-10510.924376,-2368.659014,1991.848295
3093.772924,-9622.677246,0.000000,2834.553343
3093.773261,-9548.656652,-1776.494261,3370.820191
3093.773598,-11917.315666,-1850.514855,3677.258390
3093.773936,-11103.089130,444.123565,-459.657299
3093.774273,-8512.368333,1184.329507,-2221.676944
3093.774610,-10955.047942,814.226536,0.000000
3093.774948,-10658.965565,444.123565,0.000000
3093.775285,-10140.821405,222.061783,-153.219100
3093.775623,-10732.986159,-592.164754,1455.581446
3093.775960,-10066.800811,-296.082377,2757.943793
3093.776297,-10510.924376,-444.123565,2528.115143
3093.776635,-10732.986159,-1184.329507,1991.848295
3093.776972,-9844.739029,-1332.370696,1302.362347
3093.777309,-7476.080014,740.205942,459.657299
3093.777647,-9104.533087,740.205942,995.924147
3093.777984,-9992.780217,370.102971,842.705048
3093.778322,-9992.780217,0.000000,-689.485948
3093.778659,-9474.636058,1480.411884,-1838.629195
3093.778996,-9400.615463,1036.288319,383.047749
3093.779334,-8808.450710,814.226536,2528.115143
3093.779671,-9030.512492,1776.494261,2451.505594
3093.780008,-11917.315666,1850.514855,1838.629195
3093.780346,-12287.418637,148.041188,76.609550
3093.780683,-10881.027347,-1184.329507,76.609550
3093.781021,-8512.368333,-222.061783,536.266849
3093.781358,-7920.203579,74.020594,-153.219100
3093.781695,-8216.285956,-962.267725,-766.095498
3093.782033,-10066.800811,-296.082377,-1455.581446
3093.782370,-11769.274478,0.000000,-2528.115143
3093.782707,-12435.459826,-74.020594,-2374.896044
3093.783045,-10732.986159,-888.247130,-1838.629195
3093.783382,-10066.800811,-1998.556043,-689.485948
3093.783720,-10436.903782,-2738.761985,1149.143247
3093.784057,-9326.594869,-3108.864956,612.876398
3093.784394,-9770.718434,-3775.050304,1149.143247
3093.784732,-10066.800811,-2368.659014,-536.266849
3093.785069,-10140.821405,-2220.617826,-1455.581446
3093.785406,-10955.047942,-2368.659014,229.828649
3093.785744,-9622.677246,-2146.597232,-383.047749
3093.786081,-8956.491898,-962.267725,383.047749
3093.786419,-9474.636058,222.061783,1608.800546
3093.786756,-9252.574275,962.267725,1991.848295
3093.787093,-10362.883188,518.144159,1302.362347
3093.787431,-12583.501014,1480.411884,1762.019645
3093.787768,-10807.006753,1036.288319,995.924147
3093.788105,-8586.388927,1036.288319,995.924147
3093.788443,-8956.491898,222.061783,2145.067394
3093.788780,-9548.656652,1406.391290,1685.410096
3093.789118,-9770.718434,1480.411884,-536.266849
3093.789455,-9252.574275,1776.494261,-689.485948
3093.789792,-10732.986159,1332.370696,-612.876398
3093.790130,-11399.171507,814.226536,-766.095498
3093.790467,-10510.924376,148.041188,-1225.752797
3093.790804,-9474.636058,-444.123565,0.000000
3093.791142,-8882.471304,-370.102971,1225.752797
3093.791479,-9474.636058,0.000000,306.438199
3093.791817,-9030.512492,-1406.391290,0.000000
3093.792154,-10214.842000,-2220.617826,153.219100
3093.792491,-11843.295072,-2368.659014,612.876398
3093.792829,-11177.109724,-2146.597232,1532.190996
3093.793166,-9104.533087,0.000000,1149.143247
3093.793503,-8660.409521,-296.082377,1608.800546
3093.793841,-10362.883188,-74.020594,919.314598
3093.794178,-10436.903782,-296.082377,536.266849
3093.794516,-9622.677246,-296.082377,153.219100
3093.794853,-9696.697840,-666.185348,766.095498
3093.795190,-9844.739029,-1406.391290,1149.143247
3093.795528,-11399.171507,-1332.370696,1225.752797
3093.795865,-9844.739029,0.000000,-153.219100
3093.796202,-9474.636058,444.123565,0.000000
3093.796540,-9770.718434,0.000000,0.000000
3093.796877,-11399.171507,-1036.288319,-383.047749
3093.797215,-11621.233289,-370.102971,-1532.190996
3093.797552,-9548.656652,1036.288319,-2298.286494
3093.797889,-8808.450710,-518.144159,-1838.629195
3093.798227,-10362.883188,-666.185348,153.219100
3093.798564,-11177.109724,-296.082377,76.609550
3093.798902,-9178.553681,888.247130,-1302.362347
3093.799239,-9474.636058,592.164754,76.609550
3093.799576,-10658.965565,-444.123565,1532.190996
3093.799914,-11621.233289,-296.082377,1149.143247
3093.800251,-8956.491898,0.000000,0.000000
3093.800588,-8512.368333,0.000000,2145.067394
3093.800926,-8438.347739,1036.288319,3600.648841
3093.801263,-9770.718434,1924.535449,2145.067394
3093.801601,-11029.068536,1184.329507,1225.752797
3093.801938,-10436.903782,1036.288319,-306.438199
3093.802275,-10436.903782,740.205942,-153.219100
3093.802613,-10658.965565,1702.473667,229.828649
3093.802950,-9474.636058,814.226536,-1762.019645
3093.803287,-8734.430116,222.061783,-1762.019645
3093.803625,-8364.327145,-592.164754,-1838.629195
3093.803962,-9178.553681,-1480.411884,459.657299
3093.804300,-11103.089130,-1628.453072,1378.971896
3093.804637,-11177.109724,-1184.329507,-383.047749
3093.804974,-11325.150913,-1110.308913,-306.438199
3093.805312,-9548.656652,-2294.638420,-612.876398
3093.805649,-10362.883188,-1776.494261,1838.629195
3093.805986,-9104.533087,-518.144159,383.047749
3093.806324,-10066.800811,-1036.288319,229.828649
3093.806661,-11399.171507,-1702.473667,1225.752797
3093.806999,-11917.315666,-2294.638420,1532.190996
3093.807336,-11695.253884,-1036.288319,1532.190996
3093.807673,-9474.636058,-962.267725,1072.533697
3093.808011,-7846.182985,-444.123565,1455.581446
3093.808348,-9696.697840,-518.144159,1149.143247
3093.808685,-12065.356855,0.000000,842.705048
3093.809023,-10658.965565,148.041188,0.000000
3093.809360,-10288.862594,1110.308913,229.828649
3093.809698,-9548.656652,444.123565,1608.800546
3093.810035,-10288.862594,1332.370696,1608.800546
3093.810372,-9474.636058,1406.391290,229.828649
3093.810710,-9178.553681,962.267725,-1608.800546
3093.811047,-10881.027347,-592.164754,76.609550
3093.811384,-11547.212695,0.000000,-383.047749
3093.811722,-9252.574275,444.123565,-3370.820191
3093.812059,-6069.688724,592.164754,-3447.429741
3093.812397,-6439.791695,-1184.329507,-1378.971896
3093.812734,-10436.903782,-2516.700203,766.095498
3093.813071,-10658.965565,444.123565,229.828649
3093.813409,-10436.903782,1110.308913,-229.828649
3093.813746,-10066.800811,296.082377,1838.629195
3093.814083,-12139.377449,-1110.308913,4290.134789
3093.814421,-12583.501014,518.144159,3830.477490
3093.814758,-8882.471304,592.164754,1072.533697
3093.815095,-7328.038826,-148.041188,1072.533697
3093.815433,-11251.130318,-888.247130,2987.772442
3093.815770,-13027.624579,-1184.329507,-383.047749
3093.816108,-9474.636058,1924.535449,-3294.210641
3093.816445,-8586.388927,666.185348,-2757.943793
3093.816782,-9104.533087,222.061783,-536.266849
3093.817120,-10066.800811,-518.144159,-306.438199
3093.817457,-10955.047942,444.123565,383.047749
3093.817794,-9548.656652,1184.329507,0.000000
3093.818132,-10881.027347,444.123565,1149.143247
3093.818469,-13989.892304,-1110.308913,1915.238745
3093.818806,-11843.295072,-1776.494261,-229.828649
3093.819144,-9474.636058,-2294.638420,-1072.533697
3093.819481,-7254.018232,-2442.679609,-995.924147
3093.819818,-8290.306550,-2516.700203,1455.581446
3093.820156,-10658.965565,-2220.617826,1072.533697
3093.820493,-9252.574275,-1110.308913,-2374.896044
3093.820831,-9474.636058,-74.020594,-1072.533697
3093.821168,-10881.027347,0.000000,1225.752797
3093.821505,-10881.027347,-592.164754,2528.115143
3093.821843,-10436.903782,0.000000,2528.115143
3093.822180,-9696.697840,1184.329507,3294.210641
3093.822517,-9992.780217,1628.453072,3447.429741
3093.822855,-11843.295072,518.144159,3600.648841
3093.823192,-11251.130318,444.123565,1302.362347
3093.823529,-9918.759623,1110.308913,-919.314598
3093.823867,-8438.347739,1628.453072,-612.876398
3093.824204,-8586.388927,1480.411884,0.000000
3093.824542,-10510.924376,814.226536,-995.924147
3093.824879,-9326.594869,1480.411884,-2911.162892
3093.825216,-8586.388927,1628.453072,-1838.629195
3093.825554,-10066.800811,1258.350101,383.047749
3093.825891,-9992.780217,-666.185348,229.828649
3093.826228,-11177.109724,-1554.432478,-689.485948
3093.826566,-9548.656652,-2072.576638,-1532.190996
3093.826903,-8808.450710,-1776.494261,383.047749
3093.827240,-10214.842000,-1998.556043,1685.410096
3093.827578,-10584.944971,-1776.494261,-689.485948
3093.827915,-9918.759623,-592.164754,-1762.019645
3093.828253,-8956.491898,-1258.350101,-689.485948
3093.828590,-9770.718434,0.000000,842.705048
3093.828927,-10140.821405,0.000000,842.705048
3093.829265,-11177.109724,1036.288319,612.876398
3093.829602,-10214.842000,222.061783,-306.438199
3093.829939,-11103.089130,444.123565,229.828649
3093.830277,-11473.192101,0.000000,2298.286494
3093.830614,-10732.986159,-666.185348,612.876398
3093.830951,-9178.553681,-518.144159,306.438199
3093.831289,-9474.636058,-1036.288319,383.047749
3093.831626,-9918.759623,-1184.329507,536.266849
3093.831964,-9844.739029,0.000000,0.000000
3093.832301,-9918.759623,592.164754,-2068.457845
3093.832638,-10955.047942,222.061783,-1838.629195
3093.832976,-10362.883188,-666.185348,306.438199
3093.833313,-9474.636058,74.020594,-229.828649
3093.833650,-8512.368333,0.000000,612.876398
3093.833988,-10288.862594,-1036.288319,766.095498
3093.834325,-11103.089130,-1332.370696,842.705048
3093.834662,-10955.047942,-1480.411884,1608.800546
3093.835000,-10510.924376,-1184.329507,1915.238745
3093.835337,-7698.141797,-1332.370696,689.485948
3093.835675,-9030.512492,-1332.370696,3217.601092
3093.836012,-9992.780217,740.205942,2451.505594
3093.836349,-11029.068536,814.226536,229.828649
3093.836687,-11325.150913,2072.576638,0.000000
3093.837024,-8734.430116,1406.391290,-1149.143247
3093.837361,-9326.594869,740.205942,1532.190996
3093.837699,-9770.718434,666.185348,2528.115143
3093.838036,-9178.553681,2072.576638,1455.581446
3093.838373,-10732.986159,370.102971,536.266849
3093.838711,-11473.192101,-148.041188,-1225.752797
3093.839048,-10362.883188,-888.247130,-995.924147
3093.839386,-8512.368333,-148.041188,-2451.505594
3093.839723,-7846.182985,-740.205942,-2604.724693
3093.840060,-9326.594869,-2072.576638,-536.266849
3093.840398,-9844.739029,-1998.556043,-459.657299
3093.840735,-10436.903782,-1184.329507,-1225.752797
3093.841072,-10436.903782,148.041188,153.219100
3093.841410,-9770.718434,888.247130,0.000000
3093.841747,-13249.686362,-222.061783,536.266849
3093.842084,-13101.645173,-1258.350101,0.000000
3093.842422,-8882.471304,-1332.370696,-1455.581446
3093.842759,-8068.244768,-2146.597232,1455.581446
3093.843097,-8956.491898,-1110.308913,1149.143247
3093.843434,-9400.615463,0.000000,-306.438199
3093.843771,-10214.842000,-740.205942,-383.047749
3093.844109,-10288.862594,962.267725,153.219100
3093.844446,-10214.842000,2294.638420,153.219100
3093.844783,-11473.192101,1998.556043,2068.457845
3093.845121,-10436.903782,740.205942,612.876398
3093.845458,-9770.718434,222.061783,1762.019645
3093.845795,-10658.965565,444.123565,3524.039291
3093.846133,-9622.677246,-592.164754,3217.601092
3093.846470,-9696.697840,74.020594,1685.410096
3093.846807,-9548.656652,740.205942,-1838.629195
3093.847145,-10140.821405,-962.267725,-2757.943793
3093.847482,-10584.944971,-1332.370696,-1455.581446
3093.847820,-6809.894666,-1036.288319,-1838.629195
3093.848157,-7105.977043,0.000000,0.000000
3093.848494,-10362.883188,1776.494261,1302.362347
3093.848832,-10214.842000,148.041188,919.314598
3093.849169,-12509.480420,148.041188,1302.362347
3093.849506,-11695.253884,-1628.453072,1608.800546
3093.849844,-10066.800811,-592.164754,3064.381992
3093.850181,-8216.285956,-1406.391290,2987.772442
3093.850518,-7254.018232,-1554.432478,2145.067394
3093.850856,-10362.883188,-1924.535449,2374.896044
3093.851193,-11547.212695,-962.267725,383.047749
3093.851531,-11029.068536,888.247130,-2757.943793
3093.851868,-11103.089130,1184.329507,-842.705048
3093.852205,-9326.594869,518.144159,-2528.115143
3093.852543,-9252.574275,370.102971,-766.095498
3093.852880,-11769.274478,1554.432478,-229.828649
3093.853217,-10214.842000,-666.185348,-1915.238745
3093.853555,-12065.356855,-1258.350101,-1455.581446
3093.853892,-12361.439231,-1332.370696,-1532.190996
3093.854229,-10362.883188,-1776.494261,-1532.190996
3093.854567,-9326.594869,-666.185348,229.828649
3093.854904,-7328.038826,-1924.535449,-1072.533697
3093.855242,-10732.986159,-1480.411884,-306.438199
3093.855579,-12583.501014,-2812.782580,-383.047749
3093.855916,-9400.615463,-1184.329507,-1991.848295
3093.856254,-7476.080014,148.041188,-383.047749
3093.856591,-8808.450710,-1702.473667,2451.505594
3093.856928,-11177.109724,-1924.535449,2987.772442
3093.857266,-8882.471304,-370.102971,919.314598
3093.857603,-7698.141797,1702.473667,2681.334243
3093.857940,-11473.192101,1036.288319,3983.696590
3093.858278,-12139.377449,444.123565,1838.629195
3093.858615,-10436.903782,1110.308913,0.000000
3093.858953,-8660.409521,888.247130,2145.067394
3093.859290,-8512.368333,1110.308913,2374.896044
3093.859627,-8142.265362,1924.535449,0.000000
3093.859965,-9548.656652,1924.535449,0.000000
3093.860302,-11029.068536,1776.494261,-919.314598
3093.860639,-11399.171507,444.123565,-536.266849
3093.860977,-10807.006753,888.247130,-306.438199
3093.861314,-11029.068536,0.000000,612.876398
3093.861651,-10214.842000,-148.041188,76.609550
3093.861989,-7402.059420,-814.226536,-306.438199
3093.862326,-9770.718434,-1406.391290,2298.286494
3093.862664,-11843.295072,-1332.370696,2068.457845
3093.863001,-10436.903782,-1036.288319,-306.438199
3093.863338,-11399.171507,-1258.350101,-1762.019645
3093.863676,-11843.295072,-2886.803174,-383.047749
3093.864013,-9622.677246,-1850.514855,459.657299
3093.864350,-8216.285956,-1184.329507,1149.143247
3093.864688,-7698.141797,0.000000,1072.533697
3093.865025,-9622.677246,-74.020594,612.876398
3093.865362,-12657.521608,518.144159,0.000000
3093.865700,-12953.603985,-74.020594,0.000000
3093.866037,-10362.883188,-1184.329507,-1532.190996
3093.866375,-9104.533087,-1998.556043,0.000000
3093.866712,-8882.471304,-1998.556043,1302.362347
3093.867049,-8068.244768,-1110.308913,0.000000
3093.867387,-8290.306550,-1332.370696,306.438199
3093.867724,-10807.006753,-518.144159,-153.219100
3093.868061,-11473.192101,740.205942,-2374.896044
3093.868399,-11917.315666,0.000000,-2145.067394
3093.868736,-10066.800811,1036.288319,-1915.238745
3093.869073,-8956.491898,-444.123565,-2221.676944
3093.869411,-9474.636058,0.000000,153.219100
3093.869748,-9844.739029,444.123565,459.657299
3093.870086,-9622.677246,-296.082377,1225.752797
3093.870423,-10584.944971,740.205942,0.000000
3093.870760,-10214.842000,444.123565,76.609550
3093.871098,-11251.130318,740.205942,2757.943793
3093.871435,-9696.697840,740.205942,2298.286494
3093.871772,-8660.409521,592.164754,1225.752797
3093.872110,-8586.388927,1924.535449,2451.505594
3093.872447,-10955.047942,2220.617826,4136.915689
3093.872784,-13027.624579,2664.741391,1762.019645
3093.873122,-10881.027347,2960.823768,-2374.896044
3093.873459,-7550.100608,1332.370696,-2068.457845
3093.873796,-7624.121203,-1850.514855,-536.266849
3093.874134,-9030.512492,-1554.432478,76.609550
3093.874471,-7105.977043,-222.061783,0.000000
3093.874809,-9178.553681,0.000000,-919.314598
3093.875146,-11695.253884,-814.226536,-1072.533697
3093.875483,-13027.624579,-2220.617826,-1225.752797
3093.875821,-10436.903782,-1702.473667,1149.143247
3093.876158,-8882.471304,-1850.514855,2374.896044
3093.876495,-9474.636058,-2072.576638,2834.553343
3093.876833,-11843.295072,-2812.782580,2834.553343
3093.877170,-12139.377449,-3034.844362,1149.143247
3093.877507,-9548.656652,-2294.638420,-153.219100
3093.877845,-9252.574275,-2072.576638,-612.876398
3093.878182,-11991.336260,-2220.617826,153.219100
3093.878520,-11843.295072,-3182.885551,-306.438199
3093.878857,-8734.430116,-1332.370696,-1685.410096
3093.879194,-7105.977043,-1332.370696,-919.314598
3093.879532,-7772.162391,0.000000,2068.457845
3093.879869,-11103.089130,-444.123565,2528.115143
3093.880206,-12805.562797,-370.102971,2221.676944
3093.880544,-11695.253884,962.267725,1149.143247
3093.880881,-9400.615463,1480.411884,76.609550
3093.881218,-11251.130318,666.185348,2068.457845
3093.881556,-10732.986159,962.267725,1762.019645
3093.881893,-9844.739029,1406.391290,-1455.581446
3093.882231,-9400.615463,1036.288319,-3600.648841
3093.882568,-8956.491898,-740.205942,-3830.477490
3093.882905,-10140.821405,-1480.411884,-2451.505594
3093.883243,-9400.615463,-370.102971,-2451.505594
3093.883580,-7031.956449,1776.494261,-1838.629195
3093.883917,-9178.553681,2812.782580,0.000000
3093.884255,-11991.336260,888.247130,1762.019645
3093.884592,-11843.295072,1184.329507,0.000000
3093.884929,-10510.924376,888.247130,1149.143247
3093.885267,-10436.903782,-296.082377,3294.210641
3093.885604,-10066.800811,-1998.556043,3753.867940
3093.885942,-9474.636058,-518.144159,1685.410096
3093.886279,-8216.285956,-74.020594,995.924147
3093.886616,-8586.388927,0.000000,-919.314598
3093.886954,-9696.697840,-148.041188,-1762.019645
3093.887291,-11547.212695,-666.185348,-1149.143247
3093.887628,-9770.718434,-962.267725,-995.924147
3093.887966,-8068.244768,-1924.535449,-995.924147
3093.888303,-7846.182985,-370.102971,995.924147
3093.888640,-9252.574275,-1110.308913,1608.800546
3093.888978,-12213.398043,-1258.350101,2221.676944
3093.889315,-11769.274478,-592.164754,-306.438199
3093.889653,-11695.253884,-2368.659014,-536.266849
3093.889990,-11769.274478,-3849.070898,2528.115143
3093.890327,-10584.944971,-4219.173869,2374.896044
3093.890665,-9252.574275,-2590.720797,1225.752797
3093.891002,-9474.636058,-1776.494261,689.485948
3093.891339,-9918.759623,-1554.432478,842.705048
3093.891677,-10807.006753,-518.144159,0.000000
3093.892014,-10658.965565,444.123565,-383.047749
3093.892351,-9992.780217,518.144159,153.219100
3093.892689,-10436.903782,296.082377,995.924147
3093.893026,-11029.068536,962.267725,2451.505594
3093.893364,-10288.862594,1998.556043,2145.067394
3093.893701,-9918.759623,2220.617826,2987.772442
3093.894038,-10436.903782,1110.308913,1838.629195
3093.894376,-10881.027347,962.267725,919.314598
3093.894713,-9622.677246,888.247130,536.266849
3093.895050,-8364.327145,592.164754,-76.609550
3093.895388,-7846.182985,1332.370696,-1149.143247
3093.895725,-8660.409521,740.205942,-1991.848295
3093.896062,-8586.388927,2664.741391,-3064.381992
3093.896400,-8882.471304,1628.453072,-3753.867940
3093.896737,-9992.780217,1332.370696,-2681.334243
3093.897075,-9474.636058,-370.102971,-1762.019645
3093.897412,-10436.903782,-2368.659014,0.000000
3093.897749,-9548.656652,-592.164754,1149.143247
3093.898087,-9474.636058,-296.082377,383.047749
3093.898424,-11991.336260,-2146.597232,919.314598
3093.898761,-10658.965565,-1554.432478,306.438199
3093.899099,-10436.903782,-2516.700203,612.876398
3093.899436,-9326.594869,-1332.370696,842.705048
3093.899773,-9474.636058,-666.185348,536.266849
3093.900111,-11769.274478,444.123565,1072.533697
3093.900448,-11251.130318,444.123565,-1762.019645
3093.900785,-9770.718434,814.226536,-1915.238745
3093.901123,-11029.068536,444.123565,0.000000
3093.901460,-10066.800811,-2516.700203,0.000000
3093.901798,-10732.986159,-2146.597232,1532.190996
3093.902135,-10140.821405,-1776.494261,689.485948
3093.902472,-8734.430116,-2146.597232,1149.143247
3093.902810,-10881.027347,-2886.803174,2451.505594
3093.903147,-10066.800811,-962.267725,1762.019645
3093.903484,-11103.089130,0.000000,1991.848295
3093.903822,-11251.130318,444.123565,-612.876398
3093.904159,-9326.594869,-296.082377,-842.705048
3093.904496,-9622.677246,-2146.597232,-306.438199
3093.904834,-8586.388927,-1776.494261,229.828649
3093.905171,-5921.647536,-1628.453072,-383.047749
3093.905509,-9474.636058,-444.123565,2451.505594
3093.905846,-10807.006753,296.082377,1149.143247
3093.906183,-10732.986159,370.102971,0.000000
3093.906521,-11695.253884,148.041188,1685.410096
3093.906858,-10362.883188,-888.247130,3524.039291
3093.907195,-10584.944971,-296.082377,4826.401637
3093.907533,-9622.677246,1702.473667,4519.963438
3093.907870,-9326.594869,2220.617826,3600.648841
3093.908207,-10510.924376,1110.308913,1532.190996
3093.908545,-11029.068536,1258.350101,-1149.143247
3093.908882,-10807.006753,1776.494261,-919.314598
3093.909220,-10214.842000,1850.514855,-2834.553343
3093.909557,-9252.574275,444.123565,-3524.039291
3093.909894,-9992.780217,-1480.411884,-4290.134789
3093.910232,-8808.450710,-1554.432478,-3983.696590
3093.910569,-7179.997637,-666.185348,-2451.505594
3093.910906,-7402.059420,-1480.411884,-1072.533697
3093.911244,-10732.986159,-1480.411884,0.000000
3093.911581,-12509.480420,-2072.576638,153.219100
3093.911918,-12509.480420,-444.123565,-612.876398
3093.912256,-9548.656652,-1924.535449,-995.924147
3093.912593,-11029.068536,-2368.659014,995.924147
3093.912931,-10066.800811,-2294.638420,919.314598
3093.913269,-8142.265362,-3478.967927,0.000000
3093.913606,-8364.327145,-1998.556043,0.000000
3093.913944,-9622.677246,-2516.700203,-1991.848295
3093.914281,-9770.718434,-962.267725,-1149.143247
3093.914618,-9918.759623,0.000000,536.266849
3093.914955,-11621.233289,148.041188,1149.143247
3093.915293,-11103.089130,1406.391290,459.657299
3093.915630,-11177.109724,814.226536,1762.019645
3093.915967,-11103.089130,592.164754,2451.505594
3093.916305,-10881.027347,-296.082377,2987.772442
3093.916642,-9696.697840,1258.350101,2374.896044
3093.916979,-10214.842000,518.144159,1991.848295
3093.917316,-11547.212695,518.144159,229.828649
3093.917654,-10732.986159,0.000000,-2068.457845
3093.917991,-9918.759623,0.000000,-2068.457845
3093.918328,-7698.141797,-1332.370696,0.000000
3093.918666,-7994.224174,-1184.329507,1915.238745
3093.919003,-7772.162391,296.082377,2221.676944
3093.919340,-9178.553681,1554.432478,1532.190996
3093.919677,-11103.089130,814.226536,1991.848295
3093.920015,-11843.295072,1110.308913,459.657299
3093.920352,-10066.800811,-370.102971,1302.362347
3093.920689,-10658.965565,-296.082377,3830.477490
3093.921026,-9178.553681,-296.082377,2834.553343
3093.921364,-8808.450710,518.144159,1915.238745
3093.921701,-8660.409521,1036.288319,1225.752797
3093.922038,-9844.739029,0.000000,383.047749
3093.922376,-11251.130318,0.000000,-306.438199
3093.922713,-10510.924376,740.205942,-995.924147
3093.923050,-8808.450710,2072.576638,-1302.362347
3093.923387,-9178.553681,962.267725,-1225.752797
3093.923725,-9992.780217,1554.432478,-1455.581446
3093.924062,-11325.150913,74.020594,-1225.752797
3093.924399,-11695.253884,-296.082377,-689.485948
3093.924737,-11177.109724,-888.247130,-612.876398
3093.925074,-11399.171507,-1850.514855,-1072.533697
3093.925411,-10362.883188,-2220.617826,-689.485948
3093.925748,-9326.594869,-2442.679609,-153.219100
3093.926086,-9030.512492,-1332.370696,-536.266849
3093.926423,-10140.821405,-2368.659014,-306.438199
3093.926760,-9770.718434,-2146.597232,0.000000
3093.927098,-9696.697840,-740.205942,-536.266849
3093.927435,-11029.068536,0.000000,-995.924147
3093.927772,-10436.903782,-666.185348,-766.095498
3093.928109,-9844.739029,-2516.700203,612.876398
3093.928447,-10288.862594,-740.205942,3447.429741
3093.928784,-8290.306550,888.247130,1838.629195
3093.929121,-8808.450710,814.226536,1762.019645
3093.929459,-11103.089130,-1036.288319,1915.238745
3093.929796,-11177.109724,-1998.556043,2068.457845
3093.930133,-9844.739029,2072.576638,1378.971896
3093.930470,-7254.018232,2442.679609,306.438199
3093.930808,-9548.656652,666.185348,919.314598
3093.931145,-12139.377449,518.144159,-306.438199
3093.931482,-10807.006753,2072.576638,-1608.800546
3093.931820,-8660.409521,1406.391290,-1149.143247
3093.932157,-8660.409521,148.041188,-689.485948
3093.932494,-9992.780217,0.000000,-229.828649
3093.932831,-12287.418637,-1036.288319,-1608.800546
3093.933169,-9252.574275,-444.123565,-229.828649
3093.933506,-9030.512492,-1406.391290,1378.971896
3093.933843,-11029.068536,-1332.370696,2528.115143
3093.934181,-10066.800811,-370.102971,2374.896044
3093.934518,-11325.150913,222.061783,3217.601092
3093.934855,-11103.089130,1850.514855,2068.457845
3093.935192,-11325.150913,-666.185348,689.485948
3093.935530,-12287.418637,-518.144159,2298.286494
3093.935867,-7550.100608,-1184.329507,0.000000
3093.936204,-6513.812290,-1480.411884,919.314598
3093.936541,-10288.862594,-666.185348,1532.190996
3093.936879,-11103.089130,-888.247130,-919.314598
3093.937216,-10066.800811,-370.102971,-1991.848295
3093.937553,-9326.594869,-1702.473667,-842.705048
3093.937891,-9992.780217,-1628.453072,383.047749
3093.938228,-9548.656652,-1776.494261,1608.800546
3093.938565,-9622.677246,-740.205942,2528.115143
3093.938902,-10288.862594,-1702.473667,1225.752797
3093.939240,-11843.295072,-1406.391290,-1608.800546
3093.939577,-11029.068536,-1110.308913,-1302.362347
3093.939914,-10584.944971,-1480.411884,-1149.143247
3093.940252,-9104.533087,0.000000,-2451.505594
3093.940589,-8956.491898,-1110.308913,-3983.696590
3093.940926,-9918.759623,-1776.494261,-2298.286494
3093.941263,-9992.780217,-1924.535449,-612.876398
3093.941601,-9030.512492,1036.288319,0.000000
3093.941938,-9770.718434,3034.844362,1838.629195
3093.942275,-11621.233289,2368.659014,1378.971896
3093.942613,-11769.274478,1480.411884,612.876398
3093.942950,-10584.944971,444.123565,842.705048
3093.943287,-9992.780217,592.164754,2145.067394
3093.943624,-8290.306550,1480.411884,2987.772442
3093.943962,-9400.615463,1036.288319,1225.752797
3093.944299,-10436.903782,370.102971,-536.266849
3093.944636,-10288.862594,0.000000,-2221.676944
3093.944974,-8290.306550,1036.288319,-1532.190996
3093.945311,-8068.244768,1110.308913,-1149.143247
3093.945648,-10214.842000,74.020594,-1302.362347
3093.945985,-9326.594869,1036.288319,-2528.115143
3093.946323,-7772.162391,444.123565,-1608.800546
3093.946660,-10214.842000,-814.226536,2604.724693
3093.946997,-11917.315666,-592.164754,2145.067394
3093.947335,-11177.109724,74.020594,1149.143247
3093.947672,-11473.192101,-1554.432478,1302.362347
3093.948009,-9844.739029,-2886.803174,1302.362347
3093.948346,-10288.862594,-3256.906145,2757.943793
3093.948684,-10214.842000,-1702.473667,2068.457845
3093.949021,-8512.368333,-888.247130,229.828649
3093.949358,-10066.800811,-1924.535449,0.000000
3093.949696,-11621.233289,-1776.494261,1225.752797
3093.950033,-9474.636058,-814.226536,2068.457845
3093.950370,-9400.615463,1406.391290,2604.724693
3093.950707,-9548.656652,2294.638420,1685.410096
3093.951045,-11547.212695,518.144159,919.314598
3093.951382,-13249.686362,-370.102971,612.876398
3093.951719,-9548.656652,-592.164754,536.266849
3093.952056,-9104.533087,-1036.288319,2145.067394
3093.952394,-9400.615463,-592.164754,2374.896044
3093.952731,-9696.697840,-888.247130,536.266849
3093.953068,-9252.574275,592.164754,-1455.581446
3093.953406,-8882.471304,1110.308913,-2604.724693
3093.953743,-9474.636058,1258.350101,-1915.238745
3093.954080,-11103.089130,222.061783,-1838.629195
3093.954417,-9918.759623,1184.329507,-1762.019645
3093.954755,-8364.327145,1110.308913,-1225.752797
3093.955092,-9030.512492,666.185348,1378.971896
3093.955429,-11103.089130,1110.308913,1302.362347
3093.955767,-11325.150913,0.000000,153.219100
3093.956104,-11103.089130,74.020594,76.609550
3093.956441,-10066.800811,-296.082377,612.876398
3093.956778,-9030.512492,666.185348,1762.019645
3093.957116,-9992.780217,0.000000,1302.362347
3093.957453,-10214.842000,222.061783,0.000000
3093.957790,-8512.368333,444.123565,-1991.848295
3093.958128,-8586.388927,592.164754,-229.828649
3093.958465,-10658.965565,814.226536,1608.800546
3093.958802,-9474.636058,1036.288319,-1838.629195
3093.959139,-10807.006753,444.123565,-2221.676944
3093.959477,-9992.780217,-592.164754,-1378.971896
3093.959814,-9178.553681,-1480.411884,-1072.533697
3093.960151,-10214.842000,-1776.494261,-229.828649
3093.960489,-9178.553681,-2146.597232,-1838.629195
3093.960826,-9400.615463,-2886.803174,-995.924147
3093.961163,-10436.903782,-3404.947333,842.705048
3093.961500,-10140.821405,-1110.308913,1225.752797
3093.961838,-10510.924376,0.000000,842.705048
3093.962175,-11991.336260,-444.123565,76.609550
3093.962512,-10955.047942,0.000000,0.000000
3093.962850,-11547.212695,-1184.329507,459.657299
3093.963187,-11621.233289,-1258.350101,1762.019645
3093.963524,-10214.842000,-1110.308913,1991.848295
3093.963861,-10066.800811,74.020594,1762.019645
3093.964199,-9178.553681,-1036.288319,2451.505594
3093.964536,-10288.862594,-444.123565,4060.306139
3093.964873,-9918.759623,1184.329507,2834.553343
3093.965210,-11251.130318,1554.432478,2834.553343
3093.965548,-12435.459826,444.123565,1532.190996
3093.965885,-10214.842000,1554.432478,-306.438199
3093.966222,-8438.347739,814.226536,0.000000
3093.966560,-7179.997637,148.041188,-153.219100
3093.966897,-7328.038826,0.000000,-842.705048
3093.967234,-9178.553681,-740.205942,-766.095498
3093.967571,-11325.150913,-666.185348,-1455.581446
3093.967909,-10214.842000,-666.185348,-2834.553343
3093.968246,-8956.491898,-888.247130,-1455.581446
3093.968583,-8882.471304,-1628.453072,0.000000
3093.968921,-8882.471304,-2294.638420,229.828649
3093.969258,-8660.409521,-222.061783,766.095498
3093.969595,-9474.636058,-592.164754,1762.019645
3093.969932,-12435.459826,-962.267725,2757.943793
3093.970270,-13175.665768,296.082377,0.000000
3093.970607,-10510.924376,888.247130,-1072.533697
3093.970944,-8956.491898,0.000000,-229.828649
3093.971282,-9696.697840,-592.164754,-842.705048
3093.971619,-9252.574275,-518.144159,-1532.190996
3093.971956,-9622.677246,-148.041188,-1378.971896
3093.972293,-9770.718434,-222.061783,-766.095498
3093.972631,-9844.739029,1184.329507,1302.362347
3093.972968,-12139.377449,444.123565,2604.724693
3093.973305,-11843.295072,962.267725,842.705048
3093.973643,-11251.130318,296.082377,0.000000
3093.973980,-10658.965565,296.082377,-229.828649
3093.974317,-9622.677246,-1332.370696,-1149.143247
3093.974654,-9918.759623,-1554.432478,-612.876398
3093.974992,-8068.244768,-1702.473667,-383.047749
3093.975329,-9030.512492,-1332.370696,0.000000
3093.975666,-9844.739029,-888.247130,1225.752797
3093.976004,-10140.821405,0.000000,919.314598
3093.976341,-10066.800811,-370.102971,76.609550
3093.976678,-9474.636058,0.000000,842.705048
3093.977015,-9326.594869,148.041188,1838.629195
3093.977353,-10658.965565,888.247130,3447.429741
3093.977690,-11325.150913,0.000000,3600.648841
3093.978027,-10066.800811,740.205942,1838.629195
3093.978365,-8660.409521,666.185348,2298.286494
3093.978702,-9474.636058,1776.494261,2757.943793
3093.979039,-11547.212695,1554.432478,919.314598
3093.979376,-9548.656652,1036.288319,-2451.505594
3093.979714,-9770.718434,1110.308913,-2374.896044
3093.980051,-8512.368333,0.000000,-995.924147
3093.980388,-9030.512492,0.000000,536.266849
3093.980725,-8956.491898,0.000000,0.000000
3093.981063,-9474.636058,-74.020594,536.266849
3093.981400,-11547.212695,0.000000,1302.362347
3093.981737,-11473.192101,-962.267725,-919.314598
3093.982075,-10732.986159,-1628.453072,-1225.752797
3093.982412,-9992.780217,-2294.638420,-919.314598
3093.982749,-11251.130318,-1406.391290,-306.438199
3093.983086,-8364.327145,-740.205942,-842.705048
3093.983424,-8734.430116,-2294.638420,-459.657299
3093.983761,-10436.903782,-2442.679609,383.047749
3093.984098,-10955.047942,-2072.576638,536.266849
3093.984436,-10362.883188,518.144159,1225.752797
3093.984773,-11103.089130,-296.082377,1225.752797
3093.985110,-9696.697840,444.123565,0.000000
3093.985447,-9622.677246,-296.082377,536.266849
3093.985785,-10066.800811,-370.102971,3064.381992
3093.986122,-10807.006753,-518.144159,3064.381992
3093.986459,-12213.398043,518.144159,842.705048
3093.986797,-10732.986159,222.061783,-1225.752797
3093.987134,-9252.574275,-1406.391290,-1685.410096
3093.987471,-8364.327145,518.144159,-536.266849
3093.987808,-8586.388927,0.000000,-995.924147
3093.988146,-9104.533087,0.000000,-383.047749
3093.988483,-9918.759623,666.185348,-76.609550
3093.988820,-9992.780217,518.144159,-1225.752797
3093.989158,-11325.150913,370.102971,-229.828649
3093.989495,-9844.739029,-222.061783,766.095498
3093.989832,-10658.965565,222.061783,2145.067394
3093.990169,-10214.842000,0.000000,1378.971896
3093.990507,-8068.244768,-1480.411884,0.000000
3093.990844,-9400.615463,-2146.597232,1991.848295
3093.991181,-9474.636058,-888.247130,2068.457845
3093.991519,-10214.842000,-296.082377,766.095498
3093.991856,-11029.068536,888.247130,0.000000
3093.992193,-9548.656652,740.205942,0.000000
3093.992530,-10436.903782,1332.370696,229.828649
3093.992868,-9252.574275,962.267725,0.000000
3093.993205,-9400.615463,666.185348,0.000000
3093.993542,-10140.821405,74.020594,995.924147
3093.993880,-11473.192101,-1480.411884,612.876398
3093.994217,-11473.192101,-1332.370696,1149.143247
3093.994554,-10510.924376,-1480.411884,306.438199
3093.994891,-8068.244768,-2072.576638,-536.266849
3093.995229,-8216.285956,-444.123565,-842.705048
3093.995566,-9474.636058,-888.247130,-1225.752797
3093.995903,-11325.150913,-888.247130,-1685.410096
3093.996240,-13619.789333,-888.247130,-1762.019645
3093.996578,-11843.295072,-1036.288319,-1532.190996
3093.996915,-9474.636058,-2812.782580,-459.657299
3093.997252,-8068.244768,-2590.720797,1838.629195
3093.997590,-8290.306550,-1924.535449,1072.533697
3093.997927,-9474.636058,-2146.597232,1072.533697
3093.998264,-10140.821405,-1554.432478,1072.533697
3093.998601,-10955.047942,814.226536,1225.752797
3093.998939,-12139.377449,444.123565,306.438199
3093.999276,-10955.047942,1480.411884,383.047749
3093.999613,-9400.615463,1184.329507,766.095498
3093.999951,-8956.491898,2442.679609,995.924147
3094.000288,-9474.636058,2294.638420,842.705048
3094.000625,-10214.842000,2442.679609,-383.047749
3094.000962,-9770.718434,1998.556043,-1149.143247
3094.001300,-10288.862594,1332.370696,995.924147
3094.001637,-9400.615463,148.041188,1072.533697
3094.001974,-9400.615463,1184.329507,1685.410096
3094.002312,-8882.471304,1258.350101,459.657299
3094.002649,-10807.006753,74.020594,-536.266849
3094.002986,-10881.027347,666.185348,-919.314598
3094.003323,-8438.347739,0.000000,-1762.019645
3094.003661,-8364.327145,-962.267725,1149.143247
3094.003998,-11399.171507,-1184.329507,842.705048
3094.004335,-10584.944971,0.000000,-229.828649
3094.004673,-6809.894666,0.000000,-995.924147
3094.005010,-9400.615463,-1924.535449,76.609550
3094.005347,-13175.665768,-1850.514855,2451.505594
3094.005684,-11695.253884,-1110.308913,0.000000
3094.006022,-9992.780217,-1554.432478,919.314598
3094.006359,-9844.739029,-1924.535449,1685.410096
3094.006696,-9622.677246,-2516.700203,1455.581446
3094.007034,-10807.006753,-2220.617826,2374.896044
3094.007371,-9992.780217,-962.267725,2528.115143
3094.007708,-8438.347739,740.205942,536.266849
3094.008045,-11325.150913,444.123565,-1838.629195
3094.008383,-13027.624579,-814.226536,-1532.190996
3094.008720,-11399.171507,-222.061783,-1685.410096
3094.009057,-9252.574275,222.061783,-1762.019645
3094.009394,-7772.162391,-296.082377,-2145.067394
3094.009732,-9918.759623,-1776.494261,-842.705048
3094.010069,-10436.903782,-3478.967927,-1455.581446
3094.010406,-8364.327145,-2368.659014,-1302.362347
3094.010744,-8290.306550,-1554.432478,306.438199
3094.011081,-10066.800811,-1110.308913,2068.457845
3094.011418,-11621.233289,-370.102971,1915.238745
3094.011755,-9474.636058,2368.659014,-1072.533697
3094.012093,-8586.388927,1184.329507,0.000000
3094.012430,-10732.986159,148.041188,3294.210641
3094.012767,-11843.295072,1998.556043,1991.848295
3094.013105,-12509.480420,2368.659014,0.000000
3094.013442,-10214.842000,1036.288319,-1532.190996
3094.013779,-7550.100608,814.226536,153.219100
3094.014116,-8512.368333,444.123565,2145.067394
3094.014454,-9474.636058,-74.020594,2604.724693
3094.014791,-8142.265362,1998.556043,0.000000
3094.015128,-9104.533087,2146.597232,0.000000
3094.015466,-12805.562797,1406.391290,153.219100
3094.015803,-11399.171507,666.185348,-1072.533697
3094.016140,-9400.615463,1480.411884,-383.047749
3094.016478,-7698.141797,-962.267725,-536.266849
3094.016815,-9030.512492,-2442.679609,919.314598
3094.017152,-9548.656652,-1036.288319,1072.533697
3094.017490,-10436.903782,-1480.411884,-459.657299
3094.017827,-9918.759623,-2812.782580,-1302.362347
3094.018164,-10732.986159,-4589.276840,0.000000
3094.018502,-11473.192101,-3404.947333,1991.848295
3094.018839,-8142.265362,-1776.494261,919.314598
3094.019176,-7994.224174,-962.267725,842.705048
3094.019514,-9696.697840,-1924.535449,689.485948
3094.019851,-13101.645173,-1406.391290,689.485948
3094.020188,-12805.562797,-370.102971,1991.848295
3094.020526,-10658.965565,-296.082377,1455.581446
3094.020863,-10362.883188,-962.267725,3294.210641
3094.021200,-10807.006753,-444.123565,2451.505594
3094.021538,-10066.800811,-370.102971,536.266849
3094.021875,-9992.780217,-370.102971,689.485948
3094.022212,-8586.388927,0.000000,-1225.752797
3094.022550,-10584.944971,0.000000,-612.876398
3094.022887,-11547.212695,518.144159,-919.314598
3094.023224,-8956.491898,1258.350101,-1608.800546
3094.023562,-8068.244768,2220.617826,-2911.162892
3094.023899,-9178.553681,222.061783,-1455.581446
3094.024236,-10658.965565,0.000000,612.876398
3094.024573,-11251.130318,370.102971,-766.095498
3094.024911,-9252.574275,0.000000,-842.705048
3094.025248,-9178.553681,-1554.432478,689.485948
3094.025585,-10807.006753,-1480.411884,2757.943793
3094.025923,-9030.512492,0.000000,842.705048
3094.026260,-8660.409521,0.000000,-536.266849
3094.026597,-8068.244768,296.082377,306.438199
3094.026935,-12213.398043,592.164754,1685.410096
3094.027272,-14211.954086,2072.576638,-459.657299
3094.027609,-8882.471304,1554.432478,-2374.896044
3094.027947,-6809.894666,1036.288319,-153.219100
3094.028284,-8734.430116,-74.020594,1991.848295
3094.028621,-9844.739029,222.061783,1072.533697
3094.028959,-10436.903782,370.102971,612.876398
3094.029296,-10584.944971,148.041188,-766.095498
3094.029633,-11917.315666,-1184.329507,-306.438199
3094.029971,-12509.480420,-740.205942,1149.143247
3094.030308,-8364.327145,-1332.370696,459.657299
3094.030645,-7846.182985,-1554.432478,0.000000
3094.030983,-9622.677246,-1332.370696,-459.657299
3094.031320,-11251.130318,-1554.432478,-689.485948
3094.031657,-10807.006753,-1332.370696,-995.924147
3094.031995,-9474.636058,-1184.329507,-1455.581446
3094.032332,-10140.821405,-888.247130,-842.705048
3094.032669,-12287.418637,-2442.679609,766.095498
3094.033007,-10362.883188,-2886.803174,766.095498
3094.033344,-8956.491898,-2368.659014,1838.629195
3094.033681,-7698.141797,-1554.432478,2681.334243
3094.034019,-8364.327145,-592.164754,4290.134789
3094.034356,-13175.665768,148.041188,4673.182538
3094.034693,-14582.057057,592.164754,1608.800546
3094.035030,-11917.315666,0.000000,229.828649
3094.035368,-8956.491898,1110.308913,919.314598
3094.035705,-7920.203579,74.020594,3524.039291
3094.036042,-8290.306550,1628.453072,1302.362347
3094.036380,-8586.388927,2812.782580,-1915.238745
3094.036717,-9252.574275,814.226536,-1838.629195
3094.037054,-12139.377449,0.000000,0.000000
3094.037392,-11695.253884,814.226536,-919.314598
3094.037729,-8142.265362,1776.494261,-1532.190996
3094.038066,-6957.935855,518.144159,-612.876398
3094.038404,-8882.471304,-1480.411884,229.828649
3094.038741,-10584.944971,-888.247130,0.000000
3094.039078,-10214.842000,148.041188,-612.876398
3094.039416,-8068.244768,0.000000,-2221.676944
3094.039753,-9918.759623,-740.205942,-919.314598
3094.040090,-11473.192101,-1258.350101,383.047749
3094.040428,-9252.574275,-444.123565,-1455.581446
3094.040765,-6735.874072,-962.267725,-612.876398
3094.041102,-10288.862594,-1776.494261,536.266849
3094.041440,-12583.501014,-1258.350101,766.095498
3094.041777,-12583.501014,-1480.411884,459.657299
3094.042114,-9918.759623,-2072.576638,612.876398
3094.042452,-7994.224174,-814.226536,2068.457845
3094.042789,-10362.883188,0.000000,2221.676944
3094.043126,-11473.192101,222.061783,76.609550
3094.043464,-11029.068536,444.123565,-2145.067394
3094.043801,-11621.233289,962.267725,-2757.943793
3094.044138,-12287.418637,-666.185348,-2681.334243
3094.044476,-10140.821405,-1406.391290,-306.438199
3094.044813,-8364.327145,-296.082377,0.000000
3094.045150,-8364.327145,-296.082377,-1149.143247
3094.045488,-10288.862594,-2294.638420,76.609550
3094.045825,-11399.171507,-2812.782580,1762.019645
3094.046162,-9992.780217,-1850.514855,1225.752797
3094.046499,-8882.471304,-1850.514855,306.438199
3094.046837,-10362.883188,-222.061783,2145.067394
3094.047174,-9844.739029,-1332.370696,1762.019645
3094.047511,-9844.739029,-740.205942,2681.334243
3094.047849,-9178.553681,1110.308913,3140.991542
3094.048186,-8808.450710,1036.288319,2145.067394
3094.048523,-11029.068536,1406.391290,1302.362347
3094.048861,-11473.192101,814.226536,766.095498
3094.049198,-10362.883188,666.185348,1762.019645
3094.049535,-8142.265362,518.144159,1455.581446
3094.049873,-8216.285956,1702.473667,2298.286494
3094.050210,-10436.903782,3182.885551,2068.457845
3094.050547,-11029.068536,1850.514855,-1762.019645
3094.050885,-9474.636058,1110.308913,-1532.190996
3094.051222,-9992.780217,2146.597232,-306.438199
3094.051559,-9622.677246,74.020594,0.000000
3094.051897,-11547.212695,1036.288319,0.000000
3094.052234,-8882.471304,1184.329507,-2068.457845
3094.052571,-9030.512492,0.000000,-1838.629195
3094.052909,-11029.068536,-1998.556043,459.657299
3094.053246,-10436.903782,-2294.638420,76.609550
3094.053583,-10955.047942,-1628.453072,-76.609550
3094.053921,-10362.883188,-1036.288319,-842.705048
3094.054258,-9474.636058,-1332.370696,-1225.752797
3094.054595,-11103.089130,-1036.288319,-689.485948
3094.054933,-10288.862594,-1850.514855,-842.705048
3094.055270,-8808.450710,-1110.308913,-383.047749
3094.055607,-11473.192101,-666.185348,1915.238745
3094.055945,-11029.068536,-444.123565,919.314598
3094.056282,-11695.253884,0.000000,229.828649
3094.056619,-9178.553681,0.000000,0.000000
3094.056957,-9030.512492,-1036.288319,1455.581446
3094.057294,-10140.821405,-296.082377,2298.286494
3094.057631,-9770.718434,666.185348,689.485948
3094.057968,-10362.883188,296.082377,0.000000
3094.058306,-10436.903782,222.061783,-2145.067394
3094.058643,-10066.800811,0.000000,-1608.800546
3094.058980,-8586.388927,518.144159,-766.095498
3094.059318,-6735.874072,444.123565,153.219100
3094.059655,-9622.677246,1258.350101,1532.190996
3094.059992,-12287.418637,962.267725,1532.190996
3094.060330,-11917.315666,444.123565,383.047749
3094.060667,-10732.986159,962.267725,766.095498
3094.061004,-8512.368333,1036.288319,3294.210641
3094.061342,-8364.327145,518.144159,4213.525239
3094.061679,-9770.718434,888.247130,3983.696590
3094.062016,-10362.883188,2072.576638,3294.210641
3094.062354,-12139.377449,1628.453072,1378.971896
3094.062691,-12213.398043,1332.370696,689.485948
3094.063028,-8956.491898,1628.453072,1225.752797
3094.063366,-7994.224174,1850.514855,3600.648841
3094.063703,-9992.780217,814.226536,3983.696590
3094.064040,-11325.150913,740.205942,919.314598
3094.064378,-10066.800811,1110.308913,76.609550
3094.064715,-9548.656652,296.082377,1149.143247
3094.065052,-7624.121203,444.123565,2757.943793
3094.065390,-10658.965565,888.247130,2987.772442
3094.065727,-11991.336260,592.164754,919.314598
3094.066064,-9252.574275,296.082377,-2374.896044
3094.066402,-9548.656652,0.000000,-1072.533697
3094.066739,-9178.553681,-1036.288319,766.095498
3094.067076,-9400.615463,-2294.638420,1225.752797
3094.067414,-9992.780217,0.000000,1225.752797
3094.067751,-8438.347739,0.000000,0.000000
3094.068088,-10584.944971,-740.205942,1838.629195
3094.068425,-12657.521608,-592.164754,4443.353888
3094.068763,-11399.171507,888.247130,4673.182538
3094.069100,-10584.944971,1406.391290,3524.039291
3094.069437,-10658.965565,2220.617826,2911.162892
3094.069775,-10584.944971,2886.803174,3140.991542
3094.070112,-10658.965565,1554.432478,2528.115143
3094.070449,-9474.636058,740.205942,2451.505594
3094.070787,-9622.677246,3404.947333,2528.115143
3094.071124,-10288.862594,4737.318029,2834.553343
3094.071461,-10510.924376,4293.194464,1378.971896
3094.071799,-9918.759623,5033.400406,-153.219100
3094.072136,-8438.347739,4071.132681,76.609550
3094.072473,-8734.430116,3182.885551,2068.457845
3094.072811,-9992.780217,2220.617826,2911.162892
3094.073148,-9844.739029,2590.720797,2068.457845
3094.073485,-9030.512492,1924.535449,1608.800546
3094.073823,-8956.491898,1184.329507,2374.896044
3094.074160,-9622.677246,222.061783,4136.915689
3094.074497,-9918.759623,1776.494261,4443.353888
3094.074835,-9474.636058,2072.576638,1608.800546
3094.075172,-9400.615463,2664.741391,1225.752797
3094.075509,-10066.800811,1554.432478,1762.019645
3094.075847,-10510.924376,1998.556043,1838.629195
3094.076184,-10955.047942,1554.432478,2604.724693
3094.076521,-11103.089130,1480.411884,3140.991542
3094.076859,-10658.965565,814.226536,3677.258390
3094.077196,-11177.109724,1036.288319,5056.230287
3094.077533,-11029.068536,1628.453072,5286.058936
3094.077871,-10066.800811,2072.576638,4290.134789
3094.078208,-10807.006753,2294.638420,3064.381992
3094.078545,-11769.274478,1924.535449,2757.943793
3094.078883,-10214.842000,1554.432478,1991.848295
3094.079220,-10214.842000,2590.720797,2298.286494
3094.079557,-10214.842000,1776.494261,919.314598
3094.079894,-10140.821405,2072.576638,76.609550
3094.080232,-10288.862594,1702.473667,76.609550
3094.080569,-8586.388927,666.185348,153.219100
3094.080906,-7994.224174,-222.061783,2068.457845
3094.081244,-9104.533087,1258.350101,2911.162892
3094.081581,-9992.780217,1924.535449,2681.334243
3094.081918,-11547.212695,1554.432478,1302.362347
3094.082256,-10140.821405,814.226536,2145.067394
3094.082593,-8956.491898,814.226536,3753.867940
3094.082930,-9178.553681,1998.556043,5822.325785
3094.083268,-8956.491898,2516.700203,4673.182538
3094.083605,-10658.965565,3478.967927,2451.505594
3094.083942,-10955.047942,3775.050304,1762.019645
3094.084280,-10732.986159,3034.844362,1915.238745
3094.084617,-9918.759623,4071.132681,3064.381992
3094.084954,-8364.327145,3182.885551,2757.943793
3094.085292,-9474.636058,3923.091493,3217.601092
3094.085629,-10881.027347,4885.359217,1149.143247
3094.085966,-11177.109724,3552.988522,536.266849
3094.086304,-10658.965565,2886.803174,536.266849
3094.086641,-9844.739029,962.267725,153.219100
3094.086978,-9474.636058,1702.473667,2528.115143
3094.087316,-9844.739029,1702.473667,3217.601092
3094.087653,-10066.800811,1554.432478,1685.410096
3094.087990,-10140.821405,1776.494261,-153.219100
3094.088328,-10436.903782,444.123565,153.219100
3094.088665,-10510.924376,0.000000,1072.533697
3094.089002,-10066.800811,-962.267725,1378.971896
3094.089340,-9696.697840,-370.102971,1915.238745
3094.089677,-9030.512492,-148.041188,2451.505594
3094.090014,-10436.903782,592.164754,3600.648841
3094.090352,-10510.924376,1406.391290,2451.505594
3094.090689,-9992.780217,962.267725,1991.848295
3094.091026,-10658.965565,1258.350101,3524.039291
3094.091363,-11621.233289,1110.308913,3447.429741
3094.091701,-9992.780217,1184.329507,3447.429741
3094.092038,-9770.718434,666.185348,3677.258390
3094.092375,-9770.718434,1776.494261,4136.915689
3094.092713,-9696.697840,2886.803174,2911.162892
3094.093050,-10436.903782,3256.906145,3294.210641
3094.093387,-10732.986159,2146.597232,2374.896044
3094.093725,-10955.047942,2368.659014,1762.019645
3094.094062,-10658.965565,2368.659014,1915.238745
3094.094399,-9770.718434,2072.576638,2298.286494
3094.094737,-8586.388927,2072.576638,2604.724693
3094.095074,-9992.780217,2664.741391,3064.381992
3094.095411,-9474.636058,2442.679609,2145.067394
3094.095749,-10362.883188,1258.350101,2298.286494
3094.096086,-9992.780217,1110.308913,1991.848295
3094.096423,-9844.739029,1628.453072,2604.724693
3094.096761,-10214.842000,1628.453072,2987.772442
3094.097098,-9104.533087,1850.514855,3370.820191
3094.097435,-8142.265362,1628.453072,4060.306139
3094.097773,-8956.491898,3775.050304,4596.572988
3094.098110,-10066.800811,4589.276840,3524.039291
3094.098447,-11547.212695,3997.112087,2528.115143
3094.098785,-11251.130318,4145.153275,1915.238745
3094.099122,-11991.336260,2516.700203,1149.143247
3094.099459,-11325.150913,1628.453072,1685.410096
3094.099797,-7994.224174,888.247130,689.485948
3094.100134,-8956.491898,0.000000,2374.896044
3094.100471,-7994.224174,148.041188,2298.286494
3094.100809,-8364.327145,666.185348,1455.581446
3094.101146,-10584.944971,2516.700203,1455.581446
3094.101483,-10362.883188,3775.050304,-995.924147
3094.101821,-12731.542202,3256.906145,-459.657299
3094.102158,-13175.665768,1554.432478,-536.266849
3094.102495,-11251.130318,592.164754,383.047749
3094.102832,-9844.739029,-74.020594,1532.190996
3094.103170,-9400.615463,-1110.308913,2374.896044
3094.103507,-9104.533087,-1258.350101,2298.286494
3094.103844,-10658.965565,-814.226536,2451.505594
3094.104182,-9474.636058,444.123565,2987.772442
3094.104519,-9622.677246,2146.597232,3524.039291
3094.104856,-10732.986159,4367.215058,4596.572988
3094.105194,-10288.862594,4959.379811,3370.820191
3094.105531,-12213.398043,3478.967927,4290.134789
3094.105868,-12065.356855,3997.112087,3600.648841
3094.106206,-11399.171507,2072.576638,2911.162892
3094.106543,-10140.821405,3182.885551,3217.601092
3094.106880,-8808.450710,2146.597232,2528.115143
3094.107218,-8734.430116,1628.453072,2451.505594
3094.107555,-6587.832884,962.267725,2221.676944
3094.107892,-7031.956449,1776.494261,2757.943793
3094.108230,-7920.203579,3552.988522,2681.334243
3094.108567,-9030.512492,4959.379811,1225.752797
3094.108904,-11991.336260,4811.338623,2145.067394
3094.109242,-13175.665768,4811.338623,1532.190996
3094.109579,-11843.295072,2516.700203,995.924147
3094.109916,-10214.842000,1110.308913,2987.772442
3094.110254,-8808.450710,-2146.597232,3677.258390
3094.110591,-8364.327145,-1998.556043,3830.477490
3094.110928,-7772.162391,-1924.535449,3907.087040
3094.111266,-8586.388927,-740.205942,4136.915689
3094.111603,-10214.842000,2220.617826,3294.210641
3094.111940,-12065.356855,3256.906145,1455.581446
3094.112278,-11251.130318,5329.482782,842.705048
3094.112615,-11399.171507,2886.803174,2604.724693
3094.112952,-12583.501014,3182.885551,3677.258390
3094.113289,-11843.295072,2220.617826,2068.457845
3094.113627,-11029.068536,1110.308913,1608.800546
3094.113964,-9548.656652,-740.205942,2145.067394
3094.114301,-9178.553681,-1776.494261,3217.601092
3094.114639,-9252.574275,444.123565,3983.696590
3094.114976,-8142.265362,962.267725,2068.457845
3094.115313,-8512.368333,2664.741391,-459.657299
3094.115651,-11399.171507,2368.659014,-536.266849
3094.115988,-11843.295072,2516.700203,-383.047749
3094.116325,-9918.759623,2368.659014,153.219100
3094.116663,-9178.553681,2516.700203,2145.067394
3094.117000,-10214.842000,1406.391290,1838.629195
3094.117337,-11621.233289,-518.144159,1378.971896
3094.117675,-9548.656652,-1184.329507,2451.505594
3094.118012,-7476.080014,-666.185348,4443.353888
3094.118349,-8216.285956,1110.308913,5592.497135
3094.118687,-9622.677246,3182.885551,4136.915689
3094.119024,-11399.171507,3552.988522,2145.067394
3094.119361,-10955.047942,4145.153275,919.314598
3094.119699,-10732.986159,4441.235652,1838.629195
3094.120036,-11325.150913,5773.606348,4213.525239
3094.120373,-10584.944971,5181.441594,3447.429741
3094.120711,-10510.924376,3627.009116,2451.505594
3094.121048,-10732.986159,2664.741391,1915.238745
3094.121385,-9474.636058,1258.350101,2604.724693
3094.121723,-8438.347739,962.267725,2528.115143
3094.122060,-7476.080014,148.041188,1455.581446
3094.122397,-8882.471304,1776.494261,1532.190996
3094.122735,-9918.759623,1850.514855,1302.362347
3094.123072,-9770.718434,2220.617826,1149.143247
3094.123409,-9178.553681,2886.803174,1072.533697
3094.123747,-10658.965565,2368.659014,2374.896044
3094.124084,-11251.130318,1924.535449,2374.896044
3094.124421,-11769.274478,-518.144159,2681.334243
3094.124759,-10436.903782,-962.267725,3370.820191
3094.125096,-8882.471304,-1702.473667,3524.039291
3094.125433,-9474.636058,-1184.329507,4519.963438
3094.125771,-9770.718434,-296.082377,3140.991542
3094.126108,-9622.677246,962.267725,2374.896044
3094.126445,-10584.944971,3330.926739,1991.848295
3094.126783,-11325.150913,3256.906145,1915.238745
3094.127120,-11473.192101,3997.112087,1532.190996
3094.127457,-11843.295072,3849.070898,1378.971896
3094.127795,-10955.047942,3478.967927,1455.581446
3094.128132,-10066.800811,1850.514855,2604.724693
3094.128469,-10362.883188,1480.411884,3140.991542
3094.128807,-9400.615463,1036.288319,2604.724693
3094.129144,-9548.656652,1332.370696,1532.190996
3094.129481,-9548.656652,2294.638420,153.219100
3094.129819,-10066.800811,2294.638420,-842.705048
3094.130156,-9326.594869,2072.576638,-842.705048
3094.130493,-8512.368333,1554.432478,-1072.533697
3094.130831,-8956.491898,1332.370696,306.438199
3094.131168,-9178.553681,2442.679609,536.266849
3094.131505,-9474.636058,1036.288319,919.314598
3094.131843,-10066.800811,1184.329507,2451.505594
3094.132180,-9178.553681,148.041188,3217.601092
3094.132517,-9474.636058,518.144159,3983.696590
3094.132855,-9474.636058,1184.329507,4519.963438
3094.133192,-9992.780217,740.205942,3753.867940
3094.133529,-10955.047942,1924.535449,3907.087040
3094.133867,-10955.047942,1998.556043,2451.505594
3094.134204,-10658.965565,2664.741391,2068.457845
3094.134541,-10732.986159,1924.535449,1532.190996
3094.134879,-10658.965565,2294.638420,1302.362347
3094.135216,-10436.903782,1924.535449,1608.800546
3094.135553,-10214.842000,740.205942,2528.115143
3094.135891,-9474.636058,444.123565,3294.210641
3094.136228,-9992.780217,222.061783,3983.696590
3094.136565,-10658.965565,1480.411884,4290.134789
3094.136903,-10955.047942,1554.432478,3140.991542
3094.137240,-11547.212695,1480.411884,3140.991542
3094.137577,-11325.150913,888.247130,3140.991542
3094.137914,-10955.047942,444.123565,2681.334243
3094.138252,-9844.739029,592.164754,2911.162892
3094.138589,-9400.615463,148.041188,3600.648841
3094.138926,-8808.450710,296.082377,3830.477490
3094.139264,-8512.368333,1332.370696,4596.572988
3094.139601,-9474.636058,3330.926739,4749.792088
3094.139938,-10362.883188,4071.132681,4060.306139
3094.140276,-11399.171507,4219.173869,3140.991542
3094.140613,-11251.130318,4071.132681,3217.601092
3094.140950,-10066.800811,3627.009116,3907.087040
3094.141288,-9696.697840,4367.215058,4903.011187
3094.141625,-9770.718434,4219.173869,3983.696590
3094.141962,-9548.656652,5551.544565,2528.115143
3094.142300,-9474.636058,5107.421000,1608.800546
3094.142637,-9326.594869,4663.297435,2068.457845
3094.142974,-9474.636058,4737.318029,2145.067394
3094.143312,-10658.965565,5847.626942,995.924147
3094.143649,-10288.862594,6291.750507,-842.705048
3094.143986,-10362.883188,4737.318029,-2145.067394
3094.144324,-10436.903782,2294.638420,-1149.143247
3094.144661,-8956.491898,444.123565,0.000000
3094.144998,-7179.997637,1480.411884,1225.752797
3094.145336,-8364.327145,2516.700203,1532.190996
3094.145673,-10362.883188,888.247130,1225.752797
3094.146010,-10658.965565,962.267725,1532.190996
3094.146348,-10510.924376,1110.308913,2145.067394
3094.146685,-9400.615463,2220.617826,2987.772442
3094.147022,-9104.533087,1776.494261,2834.553343
3094.147360,-12509.480420,1036.288319,3370.820191
3094.147697,-12657.521608,592.164754,1915.238745
3094.148034,-9918.759623,148.041188,766.095498
3094.148372,-9178.553681,-222.061783,2757.943793
3094.148709,-9696.697840,0.000000,2528.115143
3094.149046,-10288.862594,74.020594,1072.533697
3094.149384,-10436.903782,0.000000,-919.314598
3094.149721,-9252.574275,74.020594,995.924147
3094.150058,-9548.656652,370.102971,2451.505594
3094.150396,-10066.800811,592.164754,1762.019645
3094.150733,-10510.924376,1776.494261,2451.505594
3094.151070,-10436.903782,740.205942,3370.820191
3094.151408,-11843.295072,666.185348,4060.306139
3094.151745,-11695.253884,0.000000,3524.039291
3094.152082,-10288.862594,-1110.308913,4290.134789
3094.152420,-9326.594869,-888.247130,4519.963438
3094.152757,-10510.924376,-1406.391290,4060.306139
3094.153094,-9918.759623,444.123565,2987.772442
3094.153432,-8216.285956,444.123565,1915.238745
3094.153769,-8364.327145,592.164754,2145.067394
3094.154106,-9548.656652,1850.514855,2681.334243
3094.154444,-10362.883188,2516.700203,3600.648841
3094.154781,-9992.780217,3256.906145,3830.477490
3094.155118,-10214.842000,5033.400406,4060.306139
3094.155456,-10658.965565,4071.132681,4749.792088
3094.155793,-10436.903782,1924.535449,4596.572988
3094.156130,-9252.574275,3182.885551,5822.325785
3094.156468,-9400.615463,3034.844362,5975.544884
3094.156805,-10436.903782,3404.947333,2451.505594
3094.157142,-10362.883188,2442.679609,229.828649
3094.157480,-10955.047942,888.247130,-306.438199
3094.157817,-8882.471304,1332.370696,-1762.019645
3094.158154,-8142.265362,1480.411884,-1072.533697
3094.158492,-7698.141797,2516.700203,-306.438199
3094.158829,-7476.080014,2368.659014,-229.828649
3094.159166,-10955.047942,1776.494261,-766.095498
3094.159504,-11547.212695,2146.597232,-383.047749
3094.159841,-11843.295072,1110.308913,2221.676944
3094.160178,-11399.171507,740.205942,2681.334243
3094.160516,-9622.677246,-370.102971,1838.629195
3094.160853,-10584.944971,-1998.556043,3064.381992
3094.161190,-10288.862594,-518.144159,3677.258390
3094.161528,-8586.388927,-296.082377,2681.334243
3094.161865,-9918.759623,2738.761985,2834.553343
3094.162202,-9844.739029,2664.741391,2911.162892
3094.162540,-11843.295072,4367.215058,1991.848295
3094.162877,-12065.356855,4737.318029,766.095498
3094.163214,-10658.965565,4145.153275,536.266849
3094.163552,-10807.006753,2886.803174,1762.019645
3094.163889,-9844.739029,1258.350101,2451.505594
3094.164226,-9992.780217,814.226536,2757.943793
3094.164563,-7920.203579,666.185348,2911.162892
3094.164901,-8438.347739,1998.556043,3983.696590
3094.165238,-9474.636058,3256.906145,3600.648841
3094.165575,-10584.944971,3256.906145,2068.457845
3094.165913,-10510.924376,3849.070898,2221.676944
3094.166250,-10658.965565,3923.091493,2145.067394
3094.166587,-11325.150913,3478.967927,2834.553343
3094.166925,-11325.150913,2886.803174,2451.505594
3094.167262,-9252.574275,2812.782580,3370.820191
3094.167599,-7920.203579,1110.308913,4136.915689
3094.167937,-8956.491898,2738.761985,5592.497135
3094.168274,-9474.636058,2590.720797,4290.134789
3094.168611,-9992.780217,3182.885551,3370.820191
3094.168949,-9696.697840,2960.823768,3907.087040
3094.169286,-11621.233289,4145.153275,4596.572988
3094.169623,-11399.171507,4219.173869,4136.915689
3094.169961,-10362.883188,3256.906145,3907.087040
3094.170298,-10288.862594,3256.906145,4443.353888
3094.170635,-10510.924376,2590.720797,1685.410096
3094.170973,-10214.842000,592.164754,1762.019645
3094.171310,-9770.718434,296.082377,1532.190996
3094.171647,-8734.430116,-962.267725,1302.362347
3094.171985,-9400.615463,0.000000,1302.362347
3094.172322,-8882.471304,962.267725,536.266849
3094.172659,-9400.615463,888.247130,689.485948
3094.172997,-10732.986159,518.144159,-612.876398
3094.173334,-11177.109724,-518.144159,-842.705048
3094.173671,-11843.295072,-592.164754,459.657299
3094.174009,-10584.944971,-1480.411884,2145.067394
3094.174346,-9844.739029,-1184.329507,2757.943793
3094.174683,-9844.739029,-444.123565,3140.991542
3094.175021,-9992.780217,-962.267725,2911.162892
3094.175358,-9918.759623,-1036.288319,1762.019645
3094.175695,-9844.739029,-666.185348,2298.286494
3094.176033,-9622.677246,222.061783,3217.601092
3094.176370,-9918.759623,1628.453072,4136.915689
3094.176707,-10658.965565,3478.967927,2681.334243
3094.177045,-11029.068536,3552.988522,1455.581446
3094.177382,-11103.089130,2442.679609,383.047749
3094.177719,-10066.800811,1776.494261,2374.896044
3094.178057,-9622.677246,1554.432478,2681.334243
3094.178394,-9104.533087,666.185348,2451.505594
3094.178731,-9474.636058,2294.638420,2298.286494
3094.179069,-10955.047942,1258.350101,2145.067394
3094.179406,-8808.450710,1702.473667,383.047749
3094.179743,-7846.182985,2960.823768,1378.971896
3094.180081,-9030.512492,2368.659014,2757.943793
3094.180418,-10066.800811,3627.009116,1915.238745
3094.180755,-11991.336260,3182.885551,919.314598
3094.181093,-11991.336260,3478.967927,612.876398
3094.181430,-9622.677246,2220.617826,383.047749
3094.181767,-9178.553681,518.144159,2145.067394
3094.182105,-8364.327145,148.041188,4366.744339
3094.182442,-8290.306550,962.267725,3447.429741
3094.182779,-10214.842000,814.226536,4060.306139
3094.183117,-10214.842000,1776.494261,2451.505594
3094.183454,-10214.842000,2368.659014,2451.505594
3094.183791,-11103.089130,3552.988522,3753.867940
3094.184129,-10214.842000,3849.070898,2911.162892
3094.184466,-11029.068536,3256.906145,3064.381992
3094.184803,-11917.315666,2590.720797,1762.019645
3094.185141,-10066.800811,1924.535449,995.924147
3094.185478,-10436.903782,0.000000,2757.943793
3094.185815,-9474.636058,0.000000,2221.676944
3094.186153,-8142.265362,-962.267725,2298.286494
3094.186490,-9326.594869,296.082377,1608.800546
3094.186827,-8290.306550,1406.391290,0.000000
3094.187165,-10140.821405,296.082377,689.485948
3094.187502,-11399.171507,1110.308913,1685.410096
3094.187839,-10658.965565,1258.350101,2757.943793
3094.188177,-11769.274478,1406.391290,4673.182538
3094.188514,-10362.883188,2590.720797,3830.477490
3094.188851,-10955.047942,0.000000,5745.716235
3094.189189,-10658.965565,1036.288319,5056.230287
3094.189526,-9474.636058,1110.308913,4213.525239
3094.189863,-11103.089130,2072.576638,2987.772442
3094.190201,-9252.574275,1702.473667,1685.410096
3094.190538,-8660.409521,2664.741391,2374.896044
3094.190875,-8216.285956,5033.400406,995.924147
3094.191212,-8660.409521,4959.379811,919.314598
3094.191550,-11251.130318,5773.606348,459.657299
3094.191887,-12361.439231,4811.338623,459.657299
3094.192224,-10881.027347,3775.050304,-689.485948
3094.192562,-9992.780217,1998.556043,1608.800546
3094.192899,-9326.594869,518.144159,2604.724693
3094.193236,-8364.327145,0.000000,1378.971896
3094.193574,-8438.347739,-148.041188,536.266849
3094.193911,-8068.244768,0.000000,229.828649
3094.194248,-9474.636058,592.164754,689.485948
3094.194586,-11251.130318,2146.597232,383.047749
3094.194923,-12731.542202,888.247130,-2757.943793
3094.195260,-10658.965565,0.000000,-3294.210641
3094.195598,-10066.800811,-1184.329507,76.609550
3094.195935,-8586.388927,-1406.391290,1838.629195
3094.196272,-9104.533087,-1184.329507,2451.505594
3094.196610,-11177.109724,-1110.308913,1608.800546
3094.196947,-11843.295072,-1998.556043,689.485948
3094.197284,-13027.624579,-2664.741391,1302.362347
3094.197622,-9178.553681,-888.247130,2374.896044
3094.197959,-9030.512492,-1332.370696,3140.991542
3094.198296,-11843.295072,-666.185348,2528.115143
3094.198634,-11029.068536,888.247130,-919.314598
3094.198971,-9400.615463,888.247130,-612.876398
3094.199308,-10807.006753,-370.102971,1072.533697
3094.199646,-10807.006753,-1184.329507,-383.047749
3094.199983,-9548.656652,-814.226536,-689.485948
3094.200320,-8586.388927,-1332.370696,-612.876398
3094.200658,-8734.430116,-1924.535449,0.000000
3094.200995,-8660.409521,-740.205942,-766.095498
3094.201332,-9844.739029,-1554.432478,-612.876398
3094.201670,-10510.924376,-1850.514855,536.266849
3094.202007,-7476.080014,222.061783,536.266849
3094.202344,-9548.656652,666.185348,2451.505594
3094.202682,-11769.274478,518.144159,2068.457845
3094.203019,-10658.965565,740.205942,842.705048
3094.203356,-11103.089130,1628.453072,1149.143247
3094.203694,-12139.377449,592.164754,2374.896044
3094.204031,-11177.109724,222.061783,2757.943793
3094.204368,-8882.471304,518.144159,1608.800546
3094.204706,-8290.306550,1554.432478,1225.752797
3094.205043,-9474.636058,1184.329507,-306.438199
3094.205380,-11769.274478,1110.308913,-842.705048
3094.205718,-10955.047942,888.247130,-842.705048
3094.206055,-9252.574275,592.164754,-766.095498
3094.206392,-9030.512492,1998.556043,153.219100
3094.206730,-8734.430116,296.082377,-153.219100
3094.207067,-10658.965565,-592.164754,-919.314598
3094.207404,-11399.171507,-1110.308913,-1378.971896
3094.207742,-10214.842000,-962.267725,-1302.362347
3094.208079,-9178.553681,-2146.597232,-1072.533697
3094.208416,-9326.594869,-2664.741391,76.609550
3094.208754,-9918.759623,-2368.659014,76.609550
3094.209091,-10584.944971,-2294.638420,-1378.971896
3094.209428,-9474.636058,-3034.844362,-1302.362347
3094.209766,-8808.450710,-2294.638420,-842.705048
3094.210103,-9548.656652,-1998.556043,1762.019645
3094.210440,-10436.903782,-370.102971,842.705048
3094.210778,-11621.233289,1332.370696,459.657299
3094.211115,-11399.171507,814.226536,306.438199
3094.211452,-11547.212695,74.020594,383.047749
3094.211790,-11103.089130,-740.205942,1915.238745
3094.212127,-9030.512492,666.185348,2987.772442
3094.212464,-9992.780217,1480.411884,2451.505594
3094.212802,-11103.089130,814.226536,766.095498
3094.213139,-12139.377449,296.082377,-536.266849
3094.213476,-9844.739029,2368.659014,-536.266849
3094.213814,-6661.853478,2590.720797,-1838.629195
3094.214151,-8216.285956,1332.370696,536.266849
3094.214488,-11103.089130,740.205942,0.000000
3094.214826,-10510.924376,1480.411884,-1072.533697
3094.215163,-10288.862594,2294.638420,-612.876398
3094.215500,-8734.430116,518.144159,1915.238745
3094.215838,-10436.903782,-222.061783,2604.724693
3094.216175,-10807.006753,370.102971,2068.457845
3094.216512,-9474.636058,814.226536,1072.533697
3094.216850,-7772.162391,-814.226536,229.828649
3094.217187,-9474.636058,-888.247130,0.000000
3094.217525,-10658.965565,-74.020594,612.876398
3094.217862,-9992.780217,0.000000,-1608.800546
3094.218199,-9252.574275,-370.102971,-383.047749
3094.218537,-9770.718434,666.185348,536.266849
3094.218874,-9252.574275,444.123565,1455.581446
3094.219211,-10362.883188,0.000000,2374.896044
3094.219549,-10584.944971,0.000000,1225.752797
3094.219886,-11473.192101,-518.144159,766.095498
3094.220223,-12435.459826,-1776.494261,1378.971896
3094.220561,-9918.759623,-1776.494261,766.095498
3094.220898,-7846.182985,-962.267725,-1149.143247
3094.221236,-8216.285956,-1258.350101,-1762.019645
3094.221573,-10658.965565,-2664.741391,-2068.457845
3094.221910,-10658.965565,-1036.288319,-1991.848295
3094.222248,-10436.903782,-2294.638420,-2757.943793
3094.222585,-9030.512492,-2590.720797,-1378.971896
3094.222922,-9770.718434,-1628.453072,383.047749
3094.223260,-9918.759623,-1258.350101,459.657299
3094.223597,-11547.212695,-1258.350101,76.609550
3094.223934,-11473.192101,-1924.535449,-459.657299
3094.224272,-11251.130318,-2368.659014,1302.362347
3094.224609,-10214.842000,-1406.391290,1915.238745
3094.224947,-9992.780217,-962.267725,2221.676944
3094.225284,-10362.883188,0.000000,1532.190996
3094.225621,-9622.677246,-740.205942,689.485948
3094.225959,-10288.862594,1258.350101,1225.752797
3094.226296,-9844.739029,1110.308913,459.657299
3094.226633,-9474.636058,962.267725,0.000000
3094.226971,-9770.718434,740.205942,0.000000
3094.227308,-10881.027347,1258.350101,1149.143247
3094.227645,-9696.697840,518.144159,612.876398
3094.227983,-9030.512492,888.247130,0.000000
3094.228320,-8290.306550,-148.041188,-153.219100
3094.228657,-8956.491898,-1554.432478,-766.095498
3094.228995,-10066.800811,-1554.432478,612.876398
3094.229332,-9622.677246,0.000000,-306.438199
3094.229670,-9400.615463,814.226536,-1915.238745
3094.230007,-11103.089130,-592.164754,-1532.190996
3094.230344,-10436.903782,-1776.494261,-842.705048
3094.230682,-9400.615463,-444.123565,-153.219100
3094.231019,-7920.203579,-1628.453072,1838.629195
3094.231356,-9770.718434,-962.267725,2757.943793
3094.231694,-11843.295072,-666.185348,1378.971896
3094.232031,-12731.542202,-148.041188,383.047749
3094.232368,-11473.192101,0.000000,306.438199
3094.232706,-9030.512492,-370.102971,1225.752797
3094.233043,-9030.512492,-592.164754,2757.943793
3094.233381,-9918.759623,-518.144159,1991.848295
3094.233718,-11177.109724,666.185348,1378.971896
3094.234055,-10436.903782,740.205942,-995.924147
3094.234393,-11029.068536,-296.082377,0.000000
3094.234730,-11103.089130,-962.267725,1838.629195
3094.235067,-10362.883188,518.144159,0.000000
3094.235405,-8216.285956,814.226536,-842.705048
3094.235742,-8882.471304,-1332.370696,-919.314598
3094.236079,-9844.739029,-1184.329507,153.219100
3094.236417,-11621.233289,-1480.411884,-459.657299
3094.236754,-9918.759623,296.082377,-689.485948
3094.237091,-8808.450710,-222.061783,-612.876398
3094.237429,-10732.986159,-1406.391290,842.705048
3094.237766,-9622.677246,0.000000,766.095498
3094.238104,-9474.636058,370.102971,229.828649
3094.238441,-9474.636058,1036.288319,612.876398
3094.238778,-9400.615463,814.226536,306.438199
3094.239116,-14063.912898,0.000000,1991.848295
3094.239453,-11843.295072,1110.308913,459.657299
3094.239790,-7846.182985,1850.514855,-766.095498
3094.240128,-8956.491898,1332.370696,0.000000
3094.240465,-9178.553681,814.226536,0.000000
3094.240802,-9548.656652,962.267725,536.266849
3094.241140,-9770.718434,1998.556043,-229.828649
3094.241477,-9548.656652,1628.453072,-612.876398
3094.241815,-12731.542202,2516.700203,-536.266849
3094.242152,-12583.501014,666.185348,-1915.238745
3094.242489,-9548.656652,-148.041188,-2068.457845
3094.242827,-7179.997637,-592.164754,153.219100
3094.243164,-8142.265362,-888.247130,1532.190996
3094.243501,-11621.233289,-1480.411884,459.657299
3094.243839,-10732.986159,-1036.288319,-2145.067394
3094.244176,-8068.244768,-1480.411884,-1685.410096
3094.244513,-9844.739029,-2368.659014,842.705048
3094.244851,-11177.109724,-2146.597232,2451.505594
3094.245188,-10140.821405,-1258.350101,1072.533697
3094.245525,-9474.636058,-666.185348,1532.190996
3094.245863,-9400.615463,-1702.473667,1302.362347
3094.246200,-10510.924376,-1776.494261,3447.429741
3094.246538,-11991.336260,-1110.308913,3830.477490
3094.246875,-10436.903782,-1776.494261,2528.115143
3094.247212,-10066.800811,-444.123565,2681.334243
3094.247550,-9918.759623,-888.247130,1685.410096
3094.247887,-10140.821405,-74.020594,1149.143247
3094.248224,-9030.512492,740.205942,383.047749
3094.248562,-9252.574275,2812.782580,-995.924147
3094.248899,-11621.233289,1554.432478,-1378.971896
3094.249236,-13101.645173,592.164754,-1838.629195
3094.249574,-11399.171507,518.144159,-1915.238745
3094.249911,-7846.182985,-370.102971,-1838.629195
3094.250249,-6513.812290,-2442.679609,536.266849
3094.250586,-7846.182985,-1628.453072,2451.505594
3094.250923,-9326.594869,-1628.453072,2374.896044
3094.251261,-9696.697840,814.226536,-612.876398
3094.251598,-10807.006753,-592.164754,-919.314598
3094.251935,-11621.233289,0.000000,-766.095498
3094.252273,-9918.759623,-1036.288319,-1991.848295
3094.252610,-7402.059420,-592.164754,-1455.581446
3094.252947,-7254.018232,370.102971,-383.047749
3094.253285,-8808.450710,-666.185348,153.219100
3094.253622,-11843.295072,-518.144159,-612.876398
3094.253959,-11251.130318,-666.185348,-1072.533697
3094.254297,-9844.739029,0.000000,153.219100
3094.254634,-10140.821405,370.102971,1225.752797
3094.254972,-10955.047942,0.000000,1149.143247
3094.255309,-11251.130318,-962.267725,536.266849
3094.255646,-10807.006753,-1036.288319,153.219100
3094.255984,-10658.965565,-74.020594,0.000000
3094.256321,-11399.171507,-518.144159,0.000000
3094.256658,-11547.212695,-1184.329507,229.828649
3094.256996,-9992.780217,-1776.494261,-2298.286494
3094.257333,-8512.368333,-740.205942,-2604.724693
3094.257670,-9030.512492,-1998.556043,-1455.581446
3094.258008,-11177.109724,-2220.617826,-153.219100
3094.258345,-9622.677246,-1998.556043,-766.095498
3094.258683,-8586.388927,-1110.308913,0.000000
3094.259020,-9474.636058,-2294.638420,1608.800546
3094.259357,-9474.636058,-2368.659014,2068.457845
3094.259695,-10066.800811,-1480.411884,3677.258390
3094.260032,-11177.109724,148.041188,3907.087040
3094.260369,-9992.780217,518.144159,3370.820191
3094.260707,-11843.295072,1258.350101,3524.039291
3094.261044,-11843.295072,0.000000,2451.505594
3094.261381,-9252.574275,592.164754,919.314598
3094.261719,-7994.224174,1554.432478,1685.410096
3094.262056,-8660.409521,1776.494261,1915.238745
3094.262393,-9992.780217,3108.864956,76.609550
3094.262731,-10510.924376,3256.906145,-2068.457845
3094.263068,-9474.636058,3849.070898,-2451.505594
3094.263406,-11251.130318,1628.453072,-1685.410096
3094.263743,-12065.356855,1406.391290,-383.047749
3094.264080,-9992.780217,0.000000,-306.438199
3094.264418,-8290.306550,666.185348,0.000000
3094.264755,-7772.162391,444.123565,-383.047749
3094.265092,-10066.800811,74.020594,0.000000
3094.265430,-11103.089130,-1258.350101,-153.219100
3094.265767,-10288.862594,-2072.576638,-1302.362347
3094.266104,-9696.697840,-1258.350101,229.828649
3094.266442,-9030.512492,-1998.556043,-459.657299
3094.266779,-9104.533087,-1998.556043,383.047749
3094.267117,-9696.697840,-1184.329507,0.000000
3094.267454,-9992.780217,-1184.329507,-383.047749
3094.267791,-11029.068536,-1332.370696,-383.047749
3094.268129,-10436.903782,-1850.514855,0.000000
3094.268466,-10140.821405,-1406.391290,919.314598
3094.268803,-9622.677246,-2294.638420,536.266849
3094.269141,-8438.347739,-1036.288319,536.266849
3094.269478,-11547.212695,-814.226536,1915.238745
3094.269815,-13027.624579,-962.267725,689.485948
3094.270153,-11251.130318,370.102971,-1991.848295
3094.270490,-10214.842000,370.102971,-1455.581446
3094.270828,-10140.821405,-1258.350101,0.000000
3094.271165,-9548.656652,-740.205942,76.609550
3094.271502,-9104.533087,0.000000,-536.266849
3094.271840,-9474.636058,296.082377,-459.657299
3094.272177,-11325.150913,-592.164754,-1072.533697
3094.272514,-11177.109724,-518.144159,-842.705048
3094.272852,-10140.821405,-296.082377,459.657299
3094.273189,-8956.491898,-518.144159,2145.067394
3094.273526,-9770.718434,-962.267725,2221.676944
3094.273864,-10436.903782,-74.020594,1762.019645
3094.274201,-9030.512492,-1184.329507,1302.362347
3094.274538,-9104.533087,-296.082377,2911.162892
3094.274876,-9030.512492,814.226536,2987.772442
3094.275213,-9844.739029,1554.432478,1685.410096
3094.275551,-10658.965565,1258.350101,1608.800546
3094.275888,-10584.944971,-74.020594,766.095498
3094.276225,-10362.883188,592.164754,766.095498
3094.276563,-9474.636058,1110.308913,229.828649
3094.276900,-7772.162391,0.000000,-306.438199
3094.277237,-9622.677246,370.102971,229.828649
3094.277575,-11547.212695,-592.164754,0.000000
3094.277912,-10362.883188,518.144159,-612.876398
3094.278249,-9548.656652,-1850.514855,-1072.533697
3094.278587,-9252.574275,-1480.411884,-1149.143247
3094.278924,-10362.883188,-2220.617826,-306.438199
3094.279262,-11769.274478,-1332.370696,383.047749
3094.279599,-10214.842000,-1776.494261,-612.876398
3094.279936,-10436.903782,-1924.535449,-766.095498
3094.280274,-11843.295072,-962.267725,0.000000
3094.280611,-10658.965565,-1850.514855,-1302.362347
3094.280948,-8734.430116,-2146.597232,0.000000
3094.281286,-8290.306550,-2072.576638,1685.410096
3094.281623,-10140.821405,-1924.535449,2374.896044
3094.281960,-10807.006753,-222.061783,1455.581446
3094.282298,-10436.903782,592.164754,995.924147
3094.282635,-11251.130318,0.000000,229.828649
3094.282972,-11769.274478,-444.123565,153.219100
3094.283310,-9696.697840,1406.391290,536.266849
3094.283647,-8290.306550,518.144159,-766.095498
3094.283985,-8734.430116,-444.123565,153.219100
3094.284322,-10362.883188,296.082377,383.047749
3094.284659,-10732.986159,1628.453072,-306.438199
3094.284997,-9844.739029,1924.535449,0.000000
3094.285334,-9696.697840,2812.782580,-1532.190996
3094.285671,-10288.862594,2442.679609,-1915.238745
3094.286009,-11103.089130,222.061783,-1685.410096
3094.286346,-9696.697840,148.041188,-536.266849
3094.286683,-9030.512492,-222.061783,-153.219100
3094.287021,-9178.553681,222.061783,383.047749
3094.287358,-10584.944971,370.102971,383.047749
3094.287696,-9622.677246,-370.102971,0.000000
3094.288033,-9992.780217,-666.185348,689.485948
3094.288370,-9548.656652,-1184.329507,2451.505594
3094.288708,-10288.862594,592.164754,3677.258390
3094.289045,-9770.718434,444.123565,1532.190996
3094.289382,-9474.636058,-222.061783,1378.971896
3094.289720,-9770.718434,-666.185348,766.095498
3094.290057,-10288.862594,-2294.638420,2298.286494
3094.290394,-9326.594869,-2146.597232,2681.334243
3094.290732,-10362.883188,-148.041188,1838.629195
3094.291069,-10510.924376,296.082377,229.828649
3094.291406,-10436.903782,-296.082377,-1302.362347
3094.291744,-10881.027347,-2220.617826,-995.924147
3094.292081,-11769.274478,-3256.906145,306.438199
3094.292419,-10881.027347,-2590.720797,-612.876398
3094.292756,-7476.080014,-1998.556043,-459.657299
3094.293093,-9326.594869,-1850.514855,0.000000
3094.293431,-10955.047942,-518.144159,-1915.238745
3094.293768,-11177.109724,-296.082377,-2987.772442
3094.294105,-11325.150913,-2146.597232,-1455.581446
3094.294443,-11103.089130,-2220.617826,-459.657299
3094.294780,-10584.944971,-1628.453072,1302.362347
3094.295117,-11251.130318,0.000000,3217.601092
3094.295455,-9030.512492,-518.144159,919.314598
3094.295792,-9474.636058,-444.123565,0.000000
3094.296130,-11103.089130,444.123565,1685.410096
3094.296467,-11029.068536,-444.123565,1838.629195
3094.296804,-9548.656652,518.144159,1915.238745
3094.297142,-8808.450710,2368.659014,-153.219100
3094.297479,-9252.574275,2294.638420,-766.095498
3094.297816,-10807.006753,1702.473667,-689.485948
3094.298154,-10510.924376,1184.329507,-1378.971896
3094.298491,-7994.224174,962.267725,-1991.848295
3094.298828,-8586.388927,740.205942,-536.266849
3094.299166,-10584.944971,444.123565,-229.828649
3094.299503,-9252.574275,0.000000,-1991.848295
3094.299840,-8216.285956,444.123565,-3064.381992
3094.300178,-9178.553681,-1850.514855,-1149.143247
3094.300515,-10214.842000,-2146.597232,1455.581446
3094.300853,-10214.842000,148.041188,689.485948
3094.301190,-9696.697840,592.164754,1149.143247
3094.301527,-10066.800811,592.164754,306.438199
3094.301865,-11473.192101,-666.185348,-306.438199
3094.302202,-11325.150913,-592.164754,536.266849
3094.302539,-9252.574275,-962.267725,766.095498
3094.302877,-10214.842000,-1554.432478,2451.505594
3094.303214,-12065.356855,-1628.453072,2604.724693
3094.303551,-11917.315666,-1110.308913,536.266849
3094.303889,-11251.130318,-666.185348,766.095498
3094.304226,-8586.388927,-518.144159,612.876398
3094.304564,-9326.594869,-1258.350101,2834.553343
3094.304901,-12361.439231,-962.267725,2451.505594
3094.305238,-10881.027347,666.185348,842.705048
3094.305576,-9474.636058,740.205942,0.000000
3094.305913,-11325.150913,-592.164754,689.485948
3094.306250,-11399.171507,-592.164754,0.000000
3094.306588,-10140.821405,-888.247130,-842.705048
3094.306925,-7698.141797,-666.185348,-1532.190996
3094.307262,-7698.141797,-1628.453072,-689.485948
3094.307600,-10510.924376,-1480.411884,1225.752797
3094.307937,-10658.965565,-740.205942,1149.143247
3094.308274,-8364.327145,-222.061783,-306.438199
3094.308612,-8068.244768,2146.597232,459.657299
3094.308949,-10066.800811,370.102971,1685.410096
3094.309287,-12287.418637,296.082377,1532.190996
3094.309624,-10140.821405,1036.288319,153.219100
3094.309961,-8956.491898,592.164754,1455.581446
3094.310299,-9992.780217,1406.391290,1838.629195
3094.310636,-10436.903782,888.247130,1302.362347
3094.310973,-9696.697840,2072.576638,919.314598
3094.311311,-9474.636058,2368.659014,-1838.629195
3094.311648,-10955.047942,1628.453072,-2451.505594
3094.311985,-10807.006753,666.185348,-1302.362347
3094.312323,-10066.800811,222.061783,-612.876398
3094.312660,-7105.977043,1628.453072,-995.924147
3094.312998,-8586.388927,1406.391290,0.000000
3094.313335,-10955.047942,1406.391290,76.609550
3094.313672,-12583.501014,-148.041188,-1149.143247
3094.314010,-11769.274478,74.020594,-1991.848295
3094.314347,-10362.883188,-666.185348,-842.705048
3094.314684,-10658.965565,-1554.432478,536.266849
3094.315022,-10807.006753,-3404.947333,306.438199
3094.315359,-9178.553681,-2516.700203,-536.266849
3094.315697,-7031.956449,-1924.535449,-689.485948
3094.316034,-9326.594869,-2294.638420,1455.581446
3094.316371,-12435.459826,-1998.556043,1302.362347
3094.316709,-11325.150913,-1554.432478,-306.438199
3094.317046,-9400.615463,-518.144159,1378.971896
3094.317384,-9696.697840,-1258.350101,3294.210641
3094.317721,-11177.109724,-1998.556043,4136.915689
3094.318058,-11843.295072,-2294.638420,3830.477490
3094.318396,-8068.244768,-1110.308913,3140.991542
3094.318733,-8956.491898,-888.247130,4213.525239
3094.319071,-12213.398043,-370.102971,3370.820191
3094.319408,-11991.336260,-370.102971,612.876398
3094.319745,-9474.636058,666.185348,-1072.533697
3094.320083,-8142.265362,444.123565,-1762.019645
3094.320420,-8364.327145,740.205942,-1225.752797
3094.320758,-10288.862594,444.123565,-1915.238745
3094.321095,-9178.553681,1258.350101,-3140.991542
3094.321432,-8660.409521,888.247130,-2451.505594
3094.321770,-13101.645173,74.020594,306.438199
3094.322107,-12879.583391,296.082377,-306.438199
3094.322445,-10288.862594,-518.144159,76.609550
3094.322782,-8734.430116,-74.020594,1608.800546
3094.323119,-9178.553681,-1480.411884,766.095498
3094.323457,-10658.965565,-962.267725,1838.629195
3094.323794,-10732.986159,-1924.535449,766.095498
3094.324132,-9030.512492,-814.226536,-153.219100
3094.324469,-9844.739029,592.164754,-1302.362347
3094.324806,-10214.842000,1184.329507,-689.485948
3094.325144,-9474.636058,1628.453072,-1915.238745
3094.325481,-9252.574275,888.247130,-2451.505594
3094.325819,-8882.471304,1554.432478,-2068.457845
3094.326156,-10510.924376,0.000000,-689.485948
3094.326493,-12139.377449,-296.082377,153.219100
3094.326831,-9770.718434,-1480.411884,-689.485948
3094.327168,-9992.780217,-1480.411884,536.266849
3094.327506,-8586.388927,-1110.308913,842.705048
3094.327843,-10066.800811,-1036.288319,153.219100
3094.328180,-11917.315666,-1332.370696,-1302.362347
3094.328518,-10288.862594,-1628.453072,-2757.943793
3094.328855,-9844.739029,-1184.329507,-383.047749
3094.329193,-9178.553681,444.123565,229.828649
3094.329530,-9178.553681,-148.041188,76.609550
3094.329868,-10214.842000,-444.123565,153.219100
3094.330205,-9474.636058,-962.267725,153.219100
3094.330542,-9400.615463,-1332.370696,2451.505594
3094.330880,-11251.130318,-1480.411884,4366.744339
3094.331217,-9770.718434,-1258.350101,4903.011187
3094.331555,-11325.150913,0.000000,5132.839837
3094.331892,-11251.130318,296.082377,3907.087040
3094.332229,-9326.594869,666.185348,1762.019645
3094.332567,-8808.450710,666.185348,1072.533697
3094.332904,-9178.553681,666.185348,995.924147
3094.333242,-10436.903782,1924.535449,1532.190996
3094.333579,-9992.780217,1776.494261,-459.657299
3094.333916,-8882.471304,1702.473667,-842.705048
3094.334254,-9918.759623,1184.329507,-306.438199
3094.334591,-11103.089130,1332.370696,-153.219100
3094.334929,-10955.047942,148.041188,-612.876398
3094.335266,-9104.533087,0.000000,459.657299
3094.335603,-10510.924376,-1258.350101,1532.190996
3094.335941,-10955.047942,-1258.350101,536.266849
3094.336278,-10658.965565,-1406.391290,459.657299
3094.336616,-10510.924376,-1036.288319,919.314598
3094.336953,-8808.450710,148.041188,-1685.410096
3094.337290,-9030.512492,74.020594,-1838.629195
3094.337628,-10066.800811,-888.247130,-1455.581446
3094.337965,-10510.924376,-814.226536,-1685.410096
3094.338303,-10214.842000,-518.144159,-1378.971896
3094.338640,-10436.903782,370.102971,689.485948
3094.338977,-10140.821405,-1036.288319,766.095498
3094.339315,-8882.471304,222.061783,306.438199
3094.339652,-10066.800811,-1554.432478,766.095498
3094.339990,-10955.047942,-740.205942,1532.190996
3094.340327,-9918.759623,444.123565,-842.705048
3094.340664,-9030.512492,296.082377,-2221.676944
3094.341002,-10807.006753,-1036.288319,-919.314598
3094.341339,-10362.883188,-222.061783,-1532.190996
3094.341677,-9400.615463,1406.391290,-2068.457845
3094.342014,-9844.739029,1406.391290,-1225.752797
3094.342351,-10140.821405,1924.535449,-2528.115143
3094.342689,-10584.944971,222.061783,-3140.991542
3094.343026,-11103.089130,-592.164754,-842.705048
3094.343364,-10214.842000,-1332.370696,1685.410096
3094.343701,-9104.533087,-740.205942,1991.848295
3094.344038,-8364.327145,-740.205942,1991.848295
3094.344376,-9474.636058,-1184.329507,2374.896044
3094.344713,-10066.800811,-296.082377,2374.896044
3094.345051,-9474.636058,518.144159,1991.848295
3094.345388,-10510.924376,444.123565,3140.991542
3094.345725,-11399.171507,148.041188,2451.505594
3094.346063,-9400.615463,-148.041188,1225.752797
3094.346400,-8586.388927,148.041188,1915.238745
3094.346738,-8364.327145,-666.185348,2145.067394
3094.347075,-8364.327145,0.000000,1838.629195
3094.347412,-10066.800811,0.000000,76.609550
3094.347750,-10881.027347,-74.020594,-766.095498
3094.348087,-10362.883188,-1036.288319,229.828649
3094.348425,-10955.047942,-1184.329507,1991.848295
3094.348762,-10214.842000,518.144159,1149.143247
3094.349099,-9474.636058,518.144159,0.000000
3094.349437,-10807.006753,-666.185348,689.485948
3094.349774,-10066.800811,-1998.556043,0.000000
3094.350112,-11621.233289,-2294.638420,689.485948
3094.350449,-12287.418637,-1628.453072,1072.533697
3094.350786,-10732.986159,-1110.308913,-459.657299
3094.351124,-8438.347739,-962.267725,-3447.429741
3094.351461,-9400.615463,-1998.556043,-2757.943793
3094.351799,-7254.018232,-2146.597232,-2221.676944
3094.352136,-8660.409521,-2146.597232,-153.219100
3094.352474,-9696.697840,-370.102971,1838.629195
3094.352811,-12287.418637,1628.453072,2068.457845
3094.353148,-12731.542202,3034.844362,1302.362347
3094.353486,-11473.192101,1332.370696,-995.924147
3094.353823,-10436.903782,-740.205942,-306.438199
3094.354161,-8364.327145,-1110.308913,1991.848295
3094.354498,-8290.306550,-1924.535449,3294.210641
3094.354835,-8438.347739,296.082377,2604.724693
3094.355173,-9770.718434,1924.535449,-1378.971896
3094.355510,-11325.150913,2072.576638,-3830.477490
3094.355848,-10658.965565,2072.576638,-5515.887586
3094.356185,-8660.409521,740.205942,-3753.867940
3094.356522,-8290.306550,814.226536,-1991.848295
3094.356860,-8142.265362,-74.020594,-1455.581446
3094.357197,-10584.944971,814.226536,612.876398
3094.357535,-11473.192101,296.082377,536.266849
3094.357872,-11029.068536,-1036.288319,1532.190996
3094.358209,-11621.233289,-1702.473667,3677.258390
3094.358547,-9474.636058,-1850.514855,2528.115143
3094.358884,-9474.636058,-1850.514855,3064.381992
3094.359222,-10732.986159,0.000000,2374.896044
3094.359559,-9178.553681,-518.144159,0.000000
3094.359896,-10732.986159,296.082377,0.000000
3094.360234,-10881.027347,-814.226536,229.828649
3094.360571,-9770.718434,1480.411884,-153.219100
3094.360909,-9326.594869,888.247130,536.266849
3094.361246,-9474.636058,0.000000,1149.143247
3094.361583,-10362.883188,-518.144159,766.095498
3094.361921,-11177.109724,-666.185348,153.219100
3094.362258,-10510.924376,-962.267725,1072.533697
3094.362596,-10214.842000,-1628.453072,2451.505594
3094.362933,-10362.883188,-1110.308913,2528.115143
3094.363270,-10955.047942,-1924.535449,0.000000
3094.363608,-8734.430116,-1110.308913,-1378.971896
3094.363945,-7994.224174,-1110.308913,-1225.752797
3094.364283,-9104.533087,-370.102971,-689.485948
3094.364620,-10362.883188,-1110.308913,-842.705048
3094.364957,-12657.521608,-666.185348,76.609550
3094.365295,-10362.883188,814.226536,-153.219100
3094.365632,-10140.821405,-666.185348,1072.533697
3094.365970,-10510.924376,-666.185348,2681.334243
3094.366307,-10658.965565,-1998.556043,2757.943793
3094.366644,-10214.842000,0.000000,2987.772442
3094.366982,-8808.450710,592.164754,2374.896044
3094.367319,-11399.171507,444.123565,2374.896044
3094.367657,-11325.150913,0.000000,153.219100
3094.367994,-10066.800811,1998.556043,-1455.581446
3094.368331,-8142.265362,1998.556043,-1225.752797
3094.368669,-8364.327145,2368.659014,-1915.238745
3094.369006,-10288.862594,148.041188,-1532.190996
3094.369344,-10955.047942,666.185348,-2451.505594
3094.369681,-9104.533087,74.020594,-2145.067394
3094.370018,-8438.347739,-148.041188,689.485948
3094.370356,-9622.677246,-296.082377,459.657299
3094.370693,-9474.636058,-592.164754,-2221.676944
3094.371031,-9992.780217,-1332.370696,-3064.381992
3094.371368,-8364.327145,-2516.700203,-1608.800546
3094.371705,-10584.944971,-2220.617826,1225.752797
3094.372043,-12139.377449,-740.205942,1072.533697
3094.372380,-8882.471304,814.226536,-1915.238745
3094.372718,-9252.574275,-666.185348,-995.924147
3094.373055,-12065.356855,-518.144159,306.438199
3094.373392,-11843.295072,-370.102971,-383.047749
3094.373730,-11029.068536,-518.144159,995.924147
